ACCELEROMETER X (m/s²),ACCELEROMETER Y (m/s²),ACCELEROMETER Z (m/s²),GRAVITY X (m/s²),GRAVITY Y (m/s²),GRAVITY Z (m/s²),LINEAR ACCELERATION X (m/s²),LINEAR ACCELERATION Y (m/s²),LINEAR ACCELERATION Z (m/s²),GYROSCOPE X (rad/s),GYROSCOPE Y (rad/s),GYROSCOPE Z (rad/s),LIGHT (lux),MAGNETIC FIELD X (μT),MAGNETIC FIELD Y (μT),MAGNETIC FIELD Z (μT),ORIENTATION Z (azimuth °),ORIENTATION X (pitch °),ORIENTATION Y (roll °),PROXIMITY (i),ATMOSPHERIC PRESSURE (hPa),SOUND LEVEL (dB),LOCATION Latitude : ,LOCATION Longitude : ,LOCATION Altitude ( m),LOCATION Altitude-google ( m),LOCATION Altitude-atmospheric pressure ( m),LOCATION Speed ( Kmh),LOCATION Accuracy ( m),LOCATION ORIENTATION (°),Satellites in range,Time since start in ms ,YYYY-MO-DD HH-MI-SS_SSS
1.9405,1.7873,8.7221,1.9881,2.4741,9.2788,-0.0608,-0.6832,-0.941,0.0575,-0.0053,0.0341,791,-43.26,29.94,-49.92,34.99,-14.18,-13.25,3.1,987.89,44.43,42.394703,-83.281746,535.48,623.6539435,,0,14.680644,,0 / 20,16,2018-07-24 07:55:32:669
2.0267,2.2242,9.1075,1.8453,2.6923,9.2475,0.2568,-0.4872,-0.0765,-0.0117,-0.0075,0,718,-39.54,29.22,-53.88,32.69,-15.73,-11.43,3.1,987.86,51.676,42.394703,-83.281746,535.48,623.6539435,,0,14.680644,,0 / 20,516,2018-07-24 07:55:33:169
2.0195,2.1967,9.1219,1.8562,2.607,9.2698,0.1633,-0.4104,-0.1478,0.0053,-0.0202,0.0138,692,-36.48,25.98,-55.2,30.66,-15.53,-11.3,3.1,987.87,51.293,42.394703,-83.281746,535.48,623.6539435,,0,14.680644,,0 / 20,1016,2018-07-24 07:55:33:669
1.889,2.211,8.9579,1.7855,2.4996,9.3131,0.1036,-0.2886,-0.3552,-0.032,-0.0043,-0.0107,696,-36.24,26.16,-56.16,31.15,-14.83,-10.91,3.1,987.85,48.29,42.394703,-83.28179,509.68,623.7086607,,0,48.935486,,0 / 20,1516,2018-07-24 07:55:34:169
1.9692,1.8878,9.5098,1.8392,2.3034,9.3532,0.6076,0.0429,-0.2971,-0.2312,-0.115,-0.3196,707,-36.24,26.4,-56.28,31.94,-13.79,-10.76,3.1,987.86,48.34,42.394703,-83.28179,509.68,623.7086607,,0,48.935486,,0 / 20,2016,2018-07-24 07:55:34:669
2.9485,1.7753,8.0457,2.2192,2.9305,9.0916,1.1757,-0.3854,-1.7821,0.9374,-0.3782,-0.2567,749,-39.12,24.18,-55.68,36.54,-14.46,-10,3.1,987.83,48.864,42.394703,-83.28179,509.68,623.7086607,,0,48.935486,,0 / 20,2516,2018-07-24 07:55:35:169
-0.7338,2.496,9.8605,0.4388,3.7487,9.0512,-1.1726,-1.2528,0.8093,-0.2205,1.1292,0.0543,484,-48,6.36,-54.78,52.28,-22.98,-9.31,3.1,987.86,57.799,42.394703,-83.28179,509.68,623.7086607,,0,48.935486,,0 / 20,3016,2018-07-24 07:55:35:669
-7.1563,-0.1927,10.7272,-1.3619,3.0217,9.2296,-3.4947,-3.7543,1.9909,0.2152,0.1523,-0.2951,435,-24.6,10.38,-69.36,54.24,-16.01,10.82,3.1,987.79,57.383,42.394703,-83.28179,509.68,623.7086607,,0,48.935486,,0 / 20,3515,2018-07-24 07:55:36:168
-0.2286,3.5662,8.2768,-0.6634,3.8579,8.9915,0.4348,-0.2917,-0.7148,-0.3473,0.0703,0.0597,437,-17.88,7.14,-74.22,35.11,-22.95,4.95,3.1,987.81,51.904,42.394703,-83.28179,509.68,623.7086607,,0,48.935486,,0 / 20,4016,2018-07-24 07:55:36:669
-0.4956,4.4772,8.8131,-1.3965,3.0584,9.2123,0.9009,1.4187,-0.3992,1.2996,0.3835,2.0496,597,-20.82,12.84,-73.38,41.15,-17.3,6.46,3.1,987.8,56.778,42.394703,-83.28179,509.68,623.7086607,,0,48.935486,,0 / 20,4516,2018-07-24 07:55:37:169
-0.2179,3.0478,8.2468,-0.663,4.1162,8.8762,1.173,-0.7955,-0.1266,-0.114,0.0746,0.1854,613,-1.8,17.46,-74.94,5.18,-25.89,1.8,3.1,987.8,55.253,42.394703,-83.28179,509.68,623.7086607,,0,48.935486,,0 / 20,5016,2018-07-24 07:55:37:669
0.0611,2.6181,6.2369,0.843,1.9932,9.5649,0.0656,1.4736,1.9405,-1.061,-0.5294,-1.7651,998,15.54,21.72,-70.92,343.61,-10.58,4.6,3.1,987.86,60.941,42.394703,-83.28179,509.68,623.7086607,,0,48.935486,,0 / 20,5516,2018-07-24 07:55:38:169
1.2498,4.1049,12.4068,1.04,1.9368,9.5571,-7.824,10.4651,-16.1411,0.7436,-1.9164,-0.5135,237,2.1,29.76,-59.1,342.46,-10.25,-10.36,3.1,987.85,65.385,42.394703,-83.28179,509.68,623.7086607,,0,48.935486,,0 / 20,6016,2018-07-24 07:55:38:669
-2.0291,2.3463,8.8825,0.3258,4.0561,8.9226,-1.7659,-0.8718,-3.0364,1.8823,-1.5436,0.4602,50,-7.5,12.72,-49.32,358.52,-26.85,-9.15,3.1,987.86,65.902,42.394703,-83.28179,509.68,623.7086607,,0,48.935486,,0 / 20,6515,2018-07-24 07:55:39:168
-2.5055,-0.0395,8.594,-0.3099,1.0308,9.7474,-2.3404,-0.3173,-3.2795,-0.8341,0.0852,-0.163,28,-1.86,9.24,-42.96,350.49,-6.86,-5.8,0,987.84,62.891,42.394703,-83.28179,509.68,623.7086607,,0,48.935486,,0 / 20,7016,2018-07-24 07:55:39:669
-1.0546,-1.1899,10.2747,0.214,-0.0926,9.8039,-1.7092,-1.3379,-1.3164,-0.0234,0.0117,0.0064,136,-11.88,22.38,-26.04,28.35,2.2,-1.5,3.1,987.9,64.544,42.394703,-83.28179,509.68,623.7086607,,0,48.935486,,0 / 20,7516,2018-07-24 07:55:40:169
-1.3611,-1.1612,9.3996,-0.2374,-0.3847,9.7962,-1.1237,-0.7764,-0.3966,-0.0011,0.0011,0.0011,391,-25.62,18.66,-17.82,54.87,1.77,0.69,3.1,987.85,57.262,42.394703,-83.28179,509.68,623.7086607,,0,48.935486,,0 / 20,8015,2018-07-24 07:55:40:668
-1.2653,-1.1672,9.4379,-0.7078,-0.7531,9.752,-0.3744,-0.5421,-0.1441,0.0011,-0.0107,0.0032,290,-25.68,16.68,-16.62,59.73,4.28,3.95,3.1,987.84,57.052,42.394703,-83.28179,509.68,623.7086607,,0,48.935486,,0 / 20,8516,2018-07-24 07:55:41:169
-1.3755,-1.2175,9.5421,-0.9061,-0.9172,9.7215,-0.4694,-0.3003,-0.1794,0.0021,-0.0096,0,1,-25.68,16.86,-16.2,60.18,5.29,5.23,3.1,987.85,67.336,42.394703,-83.28179,509.68,623.7086607,,0,48.935486,,0 / 20,9016,2018-07-24 07:55:41:669
-1.2857,-1.2665,9.3996,-1.0505,-1.014,9.6973,-0.2352,-0.2525,-0.2977,0.0011,-0.0085,0.0011,2,-26.1,17.22,-16.26,60.54,5.88,6.1,3.1,987.87,65.794,42.394703,-83.28179,509.68,623.7086607,,0,48.935486,,13 / 20,9516,2018-07-24 07:55:42:169
-1.3024,-1.1636,9.4439,-1.1258,-1.0682,9.6831,-0.258,-0.1816,-0.2356,-0.0011,0.0064,0,28,-25.92,17.16,-15.78,60.74,6.23,6.58,3.1,987.87,62.779,42.394703,-83.28179,509.68,623.7086607,,0,48.935486,,13 / 20,10016,2018-07-24 07:55:42:669
-1.3683,-1.1492,9.4763,-1.171,-1.0942,9.6748,-0.1375,-0.1161,-0.1615,0.0021,-0.0021,0.0011,4,-25.74,17.16,-15.78,60.85,6.41,6.88,3.1,987.83,61.851,42.394703,-83.28179,509.68,623.7086607,,0,48.935486,,13 / 20,10516,2018-07-24 07:55:43:169
-1.3874,-1.1696,9.5122,-1.2123,-1.1115,9.6678,-0.1752,-0.0581,-0.1556,0.0032,-0.0128,0.0021,0,-26.16,17.1,-15.84,60.9,6.48,7.11,3.1,987.83,65.844,42.394703,-83.28179,509.68,623.7086607,,0,48.935486,,13 / 20,11016,2018-07-24 07:55:43:669
-1.3946,-1.2234,9.3829,-1.2199,-1.1113,9.6668,-0.2166,-0.142,-0.2037,-0.0032,0.0149,0,0,-26.4,17.1,-16.2,60.91,6.5,7.16,3.1,987.85,47.632,42.394703,-83.28179,509.68,623.7086607,,0,48.935486,,13 / 20,11516,2018-07-24 07:55:44:169
-1.4281,-1.2582,9.4583,-1.239,-1.1273,9.6625,-0.0982,-0.0519,-0.3407,0.0053,0.0053,0,0,-26.46,17.04,-16.38,60.96,6.59,7.29,3.1,987.86,50.289,42.394703,-83.28179,509.68,623.7086607,,0,48.935486,,13 / 20,12016,2018-07-24 07:55:44:669
-1.4269,-1.1337,9.3781,-1.2827,-1.1522,9.6539,-0.1443,0.0185,-0.2758,0.0021,0.0075,0,0,-26.46,17.1,-16.26,61.04,6.73,7.49,3.1,987.89,64.222,42.394703,-83.28179,509.68,623.7086607,,0,48.935486,,13 / 20,12516,2018-07-24 07:55:45:169
-1.2414,-1.2366,9.4595,-1.3,-1.1621,9.6504,-0.2047,-0.0876,-0.2124,-0.0021,0.0107,0,0,-26.22,17.1,-16.2,61.07,6.78,7.64,3.1,987.86,61.216,42.394703,-83.28179,509.68,623.7086607,,0,48.935486,,13 / 20,13016,2018-07-24 07:55:45:669
-1.4078,-1.2546,9.5385,-1.3107,-1.1706,9.6479,-0.0312,-0.0756,-0.1537,0.0011,-0.017,-0.0011,0,-26.04,17.1,-16.14,61.11,6.84,7.72,3.1,987.86,57.454,42.394703,-83.28179,509.68,623.7086607,,0,48.935486,,13 / 20,13516,2018-07-24 07:55:46:169
-1.3982,-1.2222,9.4846,-1.3205,-1.1772,9.6458,0.0947,0.0052,-0.2174,0.0032,-0.0096,0.0011,0,-25.8,17.1,-16.26,61.13,6.89,7.79,3.1,987.84,57.88,42.394703,-83.28179,509.68,623.7086607,,0,48.935486,,13 / 20,14016,2018-07-24 07:55:46:669
-1.3743,-1.2366,9.4954,-1.3296,-1.1849,9.6436,-0.1057,-0.0027,-0.0572,-0.0021,-0.0021,0,0,-26.16,16.86,-16.26,61.15,6.94,7.85,3.1,987.85,60.609,42.394703,-83.28179,509.68,623.7086607,,0,48.935486,,13 / 20,14515,2018-07-24 07:55:47:168
-1.1349,-1.2019,9.4224,-1.3626,-1.195,9.6377,0.3092,-0.0775,0.0229,-0.0085,-0.0096,0.0021,0,-26.22,16.74,-16.08,61.19,7.02,7.95,3.1,987.86,61.583,42.394703,-83.28179,509.68,623.7086607,,0,48.935486,,13 / 20,15016,2018-07-24 07:55:47:669
-1.4281,-1.1241,9.4152,-1.3604,-1.2071,9.6365,-0.0678,0.083,-0.2213,0.0021,0.0064,0,284,-26.22,17.1,-16.08,61.22,7.07,7.98,3.1,987.86,43.966,42.394703,-83.28179,509.68,623.7086607,,0,48.935486,,20-Oct,15516,2018-07-24 07:55:48:169
-1.3623,-1.1947,9.5337,-1.3664,-1.2074,9.6356,-0.0976,-0.0352,-0.1941,-0.0053,0.0053,0,315,-26.1,17.04,-16.92,61.54,7.07,8.07,3.1,987.86,51.406,42.394703,-83.28179,509.68,623.7086607,,0,48.935486,,20-Oct,16016,2018-07-24 07:55:48:669
-1.3647,-1.2378,9.4619,-1.3695,-1.2083,9.6351,0.0048,-0.0295,-0.1732,-0.0021,0,0.0011,318,-25.74,17.16,-16.8,61.54,7.08,8.09,3.1,987.88,45.311,42.394703,-83.28179,509.68,623.7086607,,0,48.935486,,20-Oct,16516,2018-07-24 07:55:49:169
-1.3731,-1.154,9.5337,-1.3713,-1.2093,9.6347,0.0497,0.0553,-0.1405,0.0043,-0.0117,-0.0011,317,-25.8,17.1,-16.5,61.23,7.08,8.09,3.1,987.83,48.714,42.394703,-83.28179,509.68,623.7086607,,0,48.935486,,20-Oct,17015,2018-07-24 07:55:49:668
-1.3623,-1.1863,9.4834,-1.3732,-1.2104,9.6343,0.0408,0.0301,-0.1401,-0.0011,0.0032,0,316,-25.8,16.98,-16.5,61.24,7.09,8.11,3.1,987.88,56.087,42.394703,-83.28179,509.68,623.7086607,,0,48.935486,,20-Oct,17515,2018-07-24 07:55:50:168
-1.3755,-1.233,9.4882,-1.3751,-1.2116,9.6339,0.0367,0.0181,-0.1624,0,0.0075,0.0011,316,-25.5,16.62,-16.56,60.71,7.1,8.12,3.1,987.88,62.958,42.394703,-83.28179,509.68,623.7086607,,0,48.935486,,20-Oct,18016,2018-07-24 07:55:50:669
-1.3312,-1.1983,9.4056,-1.3766,-1.2132,9.6335,0.0286,0.0017,-0.1464,-0.0021,0.0053,-0.0011,316,-25.32,16.86,-16.62,60.72,7.11,8.13,3.1,987.88,60.547,42.394703,-83.28179,509.68,623.7086607,,0,48.935486,,20-Oct,18516,2018-07-24 07:55:51:169
-1.4844,-1.2821,9.3889,-1.377,-1.2148,9.6332,-0.1002,0.068,-0.2012,0.0043,0.0107,0,296,-25.38,16.8,-16.68,60.73,7.12,8.14,3.1,987.87,53.411,42.394703,-83.28179,509.68,623.7086607,,0,48.935486,,20-Oct,19017,2018-07-24 07:55:51:670
-1.4593,-1.1624,9.663,-1.3441,-1.2553,9.6326,0.0513,0.0678,-0.4257,0.0075,0.0032,-0.0021,0,-25.62,17.04,-16.92,61.64,7.33,7.95,3.1,987.85,73.002,42.394703,-83.28179,509.68,623.7086607,,0,48.935486,,20-Oct,19516,2018-07-24 07:55:52:169
-1.3791,-1.2019,9.6223,-1.3349,-1.2514,9.6344,-0.1614,0.004,-0.333,0.0245,-0.0107,-0.0053,0,-25.86,17.22,-16.5,61.3,7.3,7.82,3.1,987.86,56.9,42.394703,-83.28179,509.68,623.7086607,,0,48.935486,,20-Oct,20016,2018-07-24 07:55:52:669
-1.2749,-1.0786,9.5086,-1.326,-1.236,9.6376,-0.1105,-0.0496,-0.153,-0.0043,-0.0064,0,0,-25.98,17.52,-16.44,59.74,7.25,7.89,3.1,987.88,63.464,42.394703,-83.28179,509.68,623.7086607,,0,48.935486,,20-Oct,20516,2018-07-24 07:55:53:169
-1.4892,-1.2043,9.5445,-1.3345,-1.2361,9.6365,-0.0625,0.0271,-0.1435,0,-0.016,0.0011,0,-25.98,17.52,-16.74,60.05,7.24,7.87,3.1,987.89,59.237,42.394703,-83.28179,509.68,623.7086607,,0,48.935486,,20-Oct,21016,2018-07-24 07:55:53:669
-1.4832,-1.1791,9.5289,-1.3468,-1.2314,9.6354,0.0851,0.1085,-0.1005,0.0021,-0.0117,-0.0011,0,-25.98,17.28,-16.2,61.27,7.21,7.95,3.1,987.88,56.879,42.394703,-83.28179,509.68,623.7086607,,0,48.935486,,20-Oct,21516,2018-07-24 07:55:54:169
-1.4784,-1.2857,9.4942,-1.3543,-1.2277,9.6348,-0.0319,0.0857,-0.0951,-0.0021,0.0032,0,0,-25.92,17.46,-15.9,61.27,7.2,8,3.1,987.87,62.153,42.394703,-83.28179,509.68,623.7086607,,0,48.935486,,20-Oct,22016,2018-07-24 07:55:54:669
-1.409,-1.1696,9.3829,-1.3661,-1.2263,9.6333,-0.1064,0.1501,0.1614,-0.0043,-0.0117,0,0,-25.92,17.46,-16.02,61.28,7.18,8.13,3.1,987.89,62.664,42.394703,-83.28179,509.68,623.7086607,,0,48.935486,,20-Oct,22516,2018-07-24 07:55:55:169
-1.5048,-1.2175,9.4751,-1.3657,-1.2226,9.6338,0.0525,0.053,-0.1396,0.0032,-0.0096,0,0,-26.1,17.46,-16.14,61.26,7.17,8.06,3.1,987.88,61.981,42.394703,-83.28179,509.68,623.7086607,,0,48.935486,,20-Oct,23016,2018-07-24 07:55:55:669
-1.4305,-1.2426,9.4894,-1.3706,-1.2205,9.6334,0.0023,0.0353,-0.2517,0,0.0043,0,0,-26.16,17.46,-16.08,61.26,7.16,8.09,3.1,987.86,54.877,42.394703,-83.28179,509.68,623.7086607,,0,48.935486,,20-Oct,23516,2018-07-24 07:55:56:169
-1.312,-1.2007,9.4355,-1.3766,-1.218,9.6329,0.0646,0.0173,-0.1973,0.0032,-0.0032,0.0011,0,-26.22,17.52,-16.14,59.72,7.14,8.13,3.1,987.87,54.204,42.394703,-83.28179,509.68,623.7086607,,0,48.935486,,20-Oct,24016,2018-07-24 07:55:56:669
-1.3922,-1.1815,9.4655,-1.3826,-1.2167,9.6322,0.0538,-0.0044,-0.1882,0.0011,-0.0085,0.0011,0,-26.52,17.58,-16.44,60.55,7.13,8.16,3.1,987.87,62.374,42.394703,-83.28179,509.68,623.7086607,,0,48.935486,,20-Oct,24516,2018-07-24 07:55:57:169
-1.2893,-1.1827,9.4164,-1.3861,-1.2135,9.632,0.0969,0.0308,-0.2156,0.0032,-0.0096,0.0011,0,-26.64,17.46,-16.26,62.06,7.11,8.18,3.1,987.88,60.998,42.394703,-83.28179,509.68,623.7086607,,0,48.935486,,20-Oct,25016,2018-07-24 07:55:57:669
-1.4856,-1.1636,9.4667,-1.3896,-1.2128,9.6316,0.0022,-0.0514,-0.1985,0,-0.0053,0.0021,0,-26.4,16.92,-16.32,61.25,7.11,8.2,3.1,987.87,60.338,42.394703,-83.28179,509.68,623.7086607,,0,48.935486,,20-Oct,25516,2018-07-24 07:55:58:169
-1.245,-1.1911,9.4499,-1.3962,-1.2126,9.6307,0.0195,-0.0863,-0.1365,-0.0021,-0.0117,0.0011,0,-25.62,15.12,-16.5,64.47,7.1,8.24,3.1,987.84,59.758,42.394703,-83.28179,509.68,623.7086607,,0,48.935486,,20-Oct,26016,2018-07-24 07:55:58:669
-1.2977,-1.2486,9.4439,-1.3985,-1.2119,9.6305,0.1008,-0.0367,-0.1865,-0.0011,-0.0053,0.0011,0,-25.44,14.82,-16.62,64.02,7.1,8.26,3.1,987.86,60.263,42.394703,-83.28179,509.68,623.7086607,,0,48.935486,,20-Oct,26515,2018-07-24 07:55:59:168
-1.4868,-1.2067,9.4942,-1.39,-1.1998,9.6332,-0.0968,-0.0069,-0.139,-0.0043,0.0107,0.0011,0,-25.56,14.82,-16.8,64.75,7.04,8.22,3.1,987.88,58.653,42.394703,-83.28179,509.68,623.7086607,,0,48.935486,,20-Oct,27016,2018-07-24 07:55:59:669
-1.385,-1.2965,9.5385,-1.3923,-1.2005,9.6328,0.0204,-0.1187,-0.2104,-0.0011,0.0064,0.0011,0,-26.22,15.54,-16.56,63.12,7.03,8.22,3.1,987.86,61.231,42.394703,-83.28179,509.68,623.7086607,,0,48.935486,,20-Oct,27515,2018-07-24 07:56:00:168
-1.3695,-1.6628,9.3374,-1.3952,-1.259,9.6249,0.0257,-0.4037,-0.2875,-0.0011,-0.0011,0,0,-26.16,16.62,-15.78,61.33,7.3,8.24,3.1,987.88,59.106,42.394703,-83.28179,509.68,623.7086607,,0,48.935486,,20-Oct,28016,2018-07-24 07:56:00:669
-1.4964,-1.9692,9.4439,-1.386,-1.4567,9.5983,-0.011,-0.4491,-0.2477,0.0043,-0.0181,0,0,-26.22,16.8,-14.94,61.41,8.41,8.18,3.1,987.87,56.945,42.394703,-83.28179,509.68,623.7086607,,0,48.935486,,20-Oct,28516,2018-07-24 07:56:01:169
-1.3599,-1.664,9.487,-1.3719,-1.5814,9.5806,0.0072,-0.2202,-0.1977,0.0011,-0.0011,0.0075,0,-26.28,16.92,-15.06,61.72,9.22,8.14,3.1,987.91,55.804,42.394703,-83.28179,509.68,623.7086607,,0,48.935486,,20-Oct,29016,2018-07-24 07:56:01:669
-1.3479,-1.8375,9.3853,-1.3637,-1.6129,9.5765,0.0158,-0.2247,-0.1912,0.0064,-0.017,0,0,-26.22,17.04,-15.06,61.81,9.45,8.09,3.1,987.86,58.704,42.394703,-83.28179,509.68,623.7086607,,0,48.935486,,20-Oct,29516,2018-07-24 07:56:02:169
-1.5203,-2.0818,9.2955,-1.3127,-1.6454,9.5781,-0.0436,-0.4531,-0.5124,0.016,-0.0692,-0.0394,0,-26.34,17.64,-15.06,60.3,9.62,7.78,3.1,987.85,57.833,42.394703,-83.28179,509.68,623.7086607,,0,48.935486,,20-Oct,30016,2018-07-24 07:56:02:669
-1.3671,-1.4856,9.1794,-1.2096,-1.6138,9.597,-0.1694,0.1354,-0.2237,0.0234,0.016,-0.0437,0,-26.46,17.46,-15.06,61.77,9.49,7.02,3.1,987.86,57.89,42.394703,-83.28179,509.68,623.7086607,,0,48.935486,,20-Oct,30516,2018-07-24 07:56:03:169
-1.482,-1.3443,9.262,-1.2612,-1.5379,9.6029,-0.2208,0.1935,-0.3409,0.0362,-0.0245,-0.0469,0,-26.7,15.96,-14.94,64.02,9.13,7.48,3.1,987.86,59.434,42.394703,-83.28179,509.68,623.7086607,,0,48.935486,,20-Oct,31016,2018-07-24 07:56:03:669
-0.8356,-1.3707,8.5677,-1.246,-1.3644,9.631,-0.558,-0.126,-0.0219,0.0373,0.0383,0,0,-27.18,15.84,-14.82,63.64,8.13,7.44,3.1,987.88,59.749,42.394703,-83.28179,509.68,623.7086607,,0,48.935486,,20-Oct,31516,2018-07-24 07:56:04:169
-0.9146,-1.336,9.7061,-1.3713,-1.3016,9.6227,0.3705,0.0266,-0.0135,-0.0138,-0.0192,0.0937,0,-27.36,15.24,-14.7,65.1,7.66,8.22,3.1,987.89,60.538,42.394703,-83.28179,509.68,623.7086607,,0,48.935486,,20-Oct,32016,2018-07-24 07:56:04:669
-1.5874,-1.142,12.5899,-1.3624,-1.0938,9.6498,-0.2249,-0.0482,2.9402,-0.032,-0.0011,0.1204,0,-27.24,14.64,-14.94,64.77,6.9,7.24,3.1,987.91,62.222,42.394703,-83.28179,509.68,623.7086607,,0,48.935486,,20-Dec,32516,2018-07-24 07:56:05:169
-1.4246,-0.9601,9.7504,-1.3975,-1.5446,9.5829,-0.1779,0.3415,0.0598,-0.0937,-0.0234,0.2194,0,-26.88,14.7,-16.08,65.88,8.8,8.31,3.1,987.91,59.445,42.394703,-83.28179,509.68,623.7086607,,0,48.935486,,20-Dec,33016,2018-07-24 07:56:05:669
-0.3005,-1.4832,9.3158,-1.2778,-1.7781,9.5591,0.9773,0.2949,-0.2432,-0.1182,-0.1161,0.3111,0,-26.04,16.86,-15.6,62.51,10.18,8.62,3.1,987.91,61.833,42.394703,-83.28179,509.68,623.7086607,,0,48.935486,,20-Dec,33516,2018-07-24 07:56:06:169
-0.3675,-1.6975,9.4583,-1.553,-1.6893,9.5344,1.1855,-0.0082,-0.0761,-0.0117,-0.0394,0.3377,0,-23.4,19.92,-14.94,54.76,10.06,9.39,3.1,987.92,64.755,42.394703,-83.28179,509.68,623.7086607,,0,48.935486,,20-Dec,34016,2018-07-24 07:56:06:669
-0.7901,-0.6764,9.3434,-1.6111,-1.552,9.5481,0.8366,0.6937,-0.0132,-0.0021,-0.0639,0.2258,0,-19.44,20.34,-14.64,49.91,9.19,9.71,3.1,987.93,63.356,42.394703,-83.28179,509.68,623.7086607,,0,48.935486,,20-Dec,34516,2018-07-24 07:56:07:169
-0.8859,0.3232,9.5589,-1.434,-1.2039,9.6263,0.5482,1.5271,-0.0674,-0.0128,-0.016,0.1225,0,-16.5,19.56,-13.38,44.01,7.73,8.73,3.1,987.92,58.421,42.394703,-83.28179,509.68,623.7086607,,0,48.935486,,20-Dec,35016,2018-07-24 07:56:07:669
-1.2103,0.0826,9.6367,-1.3236,-0.5841,9.6993,0.1133,0.6667,-0.0627,-0.0021,-0.0469,0.0437,0,-16.08,18.78,-13.56,44.3,3.74,7.82,3.1,987.96,58.537,42.394703,-83.28179,509.68,623.7086607,,0,48.935486,,20-Dec,35516,2018-07-24 07:56:08:169
-1.2953,-0.0646,9.6319,-1.2619,-0.3519,9.7187,-0.0321,0.3926,-0.0246,-0.0043,0.0107,0.0138,0,-14.28,18.48,-13.62,41.8,2.14,7.35,3.1,987.91,59.371,42.394703,-83.28179,509.68,623.7086607,,0,48.935486,,20-Dec,36016,2018-07-24 07:56:08:669
-1.4162,-1.5335,9.3326,-1.348,-0.6928,9.6888,-0.0681,-0.8407,-0.3562,-0.0064,0.0128,0.0043,0,-13.98,18.06,-13.68,42.58,3.81,7.83,3.1,987.93,70.154,42.394703,-83.28179,509.68,623.7086607,,0,48.935486,,20-Dec,36516,2018-07-24 07:56:09:169
-1.3982,-1.2019,9.5086,-1.3784,-0.909,9.6667,-0.1863,-0.3168,-0.1425,0.0053,-0.0096,0.0021,0,-13.92,17.64,-13.56,43.23,5.22,8.12,3.1,987.92,64.501,42.394703,-83.28179,509.68,623.7086607,,0,48.935486,,20-Dec,37016,2018-07-24 07:56:09:669
-1.4449,0.4262,9.9323,-1.3556,-0.8983,9.6709,0.137,1.0874,-0.5202,0.0533,-0.0053,-0.0128,0,-14.4,19.5,-13.5,39.76,5.53,8.09,3.1,987.95,57.729,42.394703,-83.28179,509.68,623.7086607,,0,48.935486,,20-Dec,37516,2018-07-24 07:56:10:169
-1.6879,-0.2646,9.9563,-1.4461,-0.6426,9.6781,-0.2418,0.3781,0.2782,-0.0138,0.0501,0.0138,0,-14.82,19.92,-13.5,41,3.81,8.36,3.1,987.9,62.879,42.394703,-83.28179,509.68,623.7086607,,0,48.935486,,20-Dec,38016,2018-07-24 07:56:10:669
-1.8064,-0.4812,9.3266,-1.6044,-0.6005,9.6559,-0.202,0.1193,-0.3293,0.0011,-0.0288,0.082,0,-15.24,19.38,-13.32,42.72,3.55,9.39,3.1,987.95,60.624,42.394703,-83.28179,509.68,623.7086607,,0,48.935486,,20-Dec,38516,2018-07-24 07:56:11:169
-2.1787,-0.5004,9.5158,-1.6756,-0.5883,9.6445,-0.2937,-0.0533,-0.0761,-0.0426,0.0107,0.1619,0,-14.76,19.32,-13.44,42.8,3.46,9.77,3.1,987.89,59.94,42.394703,-83.28179,509.68,623.7086607,,0,48.935486,,20-Dec,39016,2018-07-24 07:56:11:669
-2.5079,-0.4082,9.7995,-1.8115,-0.5403,9.6227,-0.5648,0.3104,-0.1381,-0.0586,-0.0064,0.2525,0,-13.02,20.22,-13.74,38.49,3.14,10.76,3.1,987.94,57.834,42.394703,-83.28179,509.68,623.7086607,,0,48.935486,,20-Dec,39517,2018-07-24 07:56:12:170
-2.5726,-0.0862,8.8131,-1.7317,-0.5085,9.6391,-0.8409,0.4223,-0.8261,-0.0618,0.0277,0.3238,0,-11.46,20.16,-13.62,34.45,2.96,10.09,3.1,987.93,60.317,42.394703,-83.28179,509.68,623.7086607,,0,48.935486,,20-Dec,40016,2018-07-24 07:56:12:669
-2.7509,-0.3196,9.3051,-1.9895,-0.4874,9.5904,-1.0272,0.3211,-0.4577,-0.0575,-0.0213,0.375,0,-8.22,19.32,-13.2,29.57,2.9,11.59,3.1,987.94,64.978,42.394703,-83.28179,509.68,623.7086607,,0,48.935486,,20-Dec,40516,2018-07-24 07:56:13:169
-1.7741,-0.5818,8.6143,-1.9316,-0.3367,9.6086,0.1575,-0.2451,-0.9943,-0.0426,-0.0618,0.3079,0,-6.24,17.58,-12.72,25.73,2.04,11.5,3.1,987.94,64.506,42.394703,-83.28179,509.68,623.7086607,,0,48.935486,,20-Dec,41015,2018-07-24 07:56:13:668
-1.9908,-0.407,10.0844,-1.804,-0.3213,9.6339,-0.6596,-0.2784,-0.1661,-0.0383,-0.1012,0.1971,0,-3.6,15.84,-12.78,22.29,1.83,10.95,3.1,987.9,67.229,42.394703,-83.28179,509.68,623.7086607,,0,48.935486,,13 / 20,41516,2018-07-24 07:56:14:169
-2.7809,-0.3747,9.6415,-1.8546,-0.2309,9.6269,-1.2195,-0.2324,0.0804,-0.0128,-0.0298,0.2024,0,-1.86,13.92,-12.54,17.92,1.49,10.9,3.1,987.91,66.836,42.394703,-83.28179,509.68,623.7086607,,0,48.935486,,13 / 20,42016,2018-07-24 07:56:14:669
-2.5606,0.2945,9.7324,-1.8267,-0.1744,9.6334,-0.7339,0.4689,0.099,-0.0352,-0.0714,0.212,0,-0.24,12.3,-12.3,10.67,1.02,10.67,3.1,987.89,69.029,42.394733,-83.28197,500,623.5641328,,16.09,29.361288,299.3,13 / 20,42516,2018-07-24 07:56:15:169
-2.6815,-0.3124,10.0592,-1.7965,-0.1895,9.6388,-0.885,-0.123,0.4204,-0.0383,-0.0522,0.1917,0,0.72,10.92,-11.64,6.34,1.1,10.47,3.1,987.88,67.754,42.394733,-83.28197,500,623.5641328,,16.09,29.361288,299.3,13 / 20,43016,2018-07-24 07:56:15:669
-2.4684,-0.1401,7.944,-1.8789,-0.3147,9.6198,-0.5895,0.1747,-1.6759,0.0096,0.0863,0.1459,0,0.84,9.42,-11.94,8.52,1.87,10.91,3.1,987.9,69.997,42.394733,-83.28197,500,623.5641328,,16.09,29.361288,299.3,13 / 20,43516,2018-07-24 07:56:16:169
-1.5119,-0.0802,9.5181,-2.2498,-0.1349,9.5441,-0.3946,-0.0458,-0.2738,-0.0469,-0.1055,0.1065,0,1.14,8.34,-11.76,13.38,0.84,13.65,3.1,987.83,71.646,42.394733,-83.28197,500,623.5641328,,16.09,29.361288,299.3,13 / 20,44016,2018-07-24 07:56:16:669
-1.7107,-0.4741,10.2316,-1.7813,-0.0656,9.6433,-0.2011,0.1721,-0.203,-0.0224,-0.0234,0.0426,0,1.14,6.72,-10.68,8.78,0.4,10.75,3.1,987.88,71.205,42.394733,-83.28197,500,623.5641328,,16.09,29.361288,299.3,13 / 20,44516,2018-07-24 07:56:17:169
-2.0662,0.3077,9.5062,-1.74,-0.0606,9.6509,-0.3262,0.3682,-0.1447,-0.0181,-0.0053,0.0394,0,0.54,6.6,-11.22,7.92,0.27,10.21,3.1,987.88,69.624,42.394733,-83.28197,500,623.5641328,,16.09,29.361288,299.3,13 / 20,45015,2018-07-24 07:56:17:668
-1.0475,-0.5076,10.2412,-1.4262,-0.2609,9.6989,-0.0116,0.2657,0.2993,-0.0107,-0.0842,0.0192,0,0.54,6.12,-11.94,9.46,1.27,9.31,3.1,987.89,71.53,42.394733,-83.28197,500,623.5641328,,16.09,29.361288,299.3,13 / 20,45515,2018-07-24 07:56:18:168
-1.5024,-0.0862,10.6566,-1.4988,-0.3699,9.6844,-0.9589,-0.4285,-0.3266,0.0043,-0.0064,-0.0032,0,0.42,6.06,-12.24,17.81,2.16,8.54,3.1,987.88,70.476,42.394733,-83.28197,500,623.5641328,,16.09,29.361288,299.3,13 / 20,46015,2018-07-24 07:56:18:668
-2.2422,-0.9002,8.1642,-1.7214,-0.4821,9.6423,0.3327,-0.5845,-0.3564,-0.0053,-0.2344,0.0501,0,0.6,5.52,-11.94,11.54,2.55,10.08,3.1,987.85,71.7,42.394733,-83.28197,500,623.5641328,,16.09,29.361288,299.3,13 / 20,46516,2018-07-24 07:56:19:169
-1.8531,-0.2957,7.9248,-1.9225,-0.5104,9.6028,-0.5255,-0.2666,-0.7287,0.0011,0.0735,0.0575,0,0.72,5.46,-11.58,17.45,2.95,11.32,3.1,987.86,72.077,42.394733,-83.28197,500,623.5641328,,16.09,29.361288,299.3,13 / 20,47016,2018-07-24 07:56:19:669
-1.5275,-0.9373,9.5241,-1.7774,-0.5126,9.6306,1.046,-0.0536,-0.802,-0.0554,0,0.0011,0,0.84,5.34,-10.98,13.7,2.93,10.81,3.1,987.79,71.45,42.394733,-83.28197,500,623.5641328,,16.09,29.361288,299.3,13 / 20,47516,2018-07-24 07:56:20:169
-1.4724,-0.644,10.9403,-1.6839,-0.6353,9.6401,0.3958,0.2103,0.8657,0.0075,0.0703,-0.016,0,1.68,5.22,-10.56,358.2,3.76,9.62,3.1,987.84,70.858,42.394733,-83.28197,500,623.5641328,,16.09,29.361288,299.3,13 / 20,48016,2018-07-24 07:56:20:669
-1.0523,-0.6321,10.337,-1.348,-0.752,9.6844,0.4526,-1.149,-1.519,-0.0096,-0.0075,-0.0309,0,1.02,5.16,-11.1,8.67,4.12,8.51,3.1,987.85,71.08,42.394733,-83.28197,500,623.5641328,,16.09,29.361288,299.3,13 / 20,48515,2018-07-24 07:56:21:168
-1.2186,-1.0882,9.3889,-1.4371,-0.8154,9.6665,0.386,0.7221,0.4598,-0.0138,-0.0107,-0.0064,0,0.42,5.22,-11.58,23.68,4.61,8.47,3.1,987.82,71.759,42.394733,-83.28197,500,623.5641328,,16.09,29.361288,299.3,13 / 20,49015,2018-07-24 07:56:21:668
-0.814,-1.0008,8.7747,-1.0824,-0.9185,9.7034,0.2683,-0.0823,-0.9286,-0.032,-0.0469,0.0149,0,0.84,5.22,-10.38,1.7,5.18,6.4,3.1,987.83,71.902,42.394733,-83.28197,500,623.5641328,,16.09,29.361288,299.3,15 / 20,49516,2018-07-24 07:56:22:169
-2.4888,-1.4042,10.4878,-1.1271,-0.8701,9.7027,-1.3617,-0.5341,0.7851,0.0149,-0.0629,0.0043,0,0.78,5.28,-11.58,5.1,5.11,6.42,3.1,987.84,71.31,42.394733,-83.28197,500,623.5641328,,16.09,29.361288,299.3,15 / 20,50015,2018-07-24 07:56:22:668
-1.2234,-1.1815,9.6031,-1.4634,-0.9199,9.6531,0.24,-0.2616,-0.05,-0.0202,-0.0575,0.0011,0,0.66,5.4,-11.34,9.46,5.35,8.61,3.1,987.79,70.513,42.394733,-83.28197,500,623.5641328,,16.09,29.361288,299.3,15 / 20,50517,2018-07-24 07:56:23:170
-1.1396,-0.5997,9.0812,-1.3849,-0.9847,9.6583,0.2453,0.385,-0.5771,0.0288,0.1491,0.0032,0,0.66,5.28,-10.68,7.5,5.67,7.85,3.1,987.81,70.369,42.394733,-83.28197,500,623.5641328,,16.09,29.361288,299.3,15 / 20,51017,2018-07-24 07:56:23:670
-1.1983,-0.6404,9.3063,-1.7534,-0.9455,9.6022,-0.0997,0.0345,-0.4396,0.0064,0.1619,-0.0138,0,0.96,4.62,-10.56,12.72,5.4,9.82,3.1,987.8,72.257,42.394733,-83.28197,500,623.5641328,,16.09,29.361288,299.3,15 / 20,51516,2018-07-24 07:56:24:169
-1.4952,-1.0654,9.5361,-1.732,-0.9883,9.6018,0.2368,-0.0771,-0.0657,0.0138,0.0522,0.0096,0,0.72,6,-10.26,9.53,5.8,10.46,3.1,987.84,71.555,42.394733,-83.28197,500,623.5641328,,16.09,29.361288,299.3,15 / 20,52015,2018-07-24 07:56:24:668
-2.2769,-2.0554,8.7281,-1.5604,-1.1053,9.6184,-0.7165,-0.9501,-0.8904,0.033,-0.0128,-0.0117,0,-0.48,6.06,-11.1,21.89,6.26,10.06,3.1,987.82,71.552,42.394733,-83.28197,500,623.5641328,,16.09,29.361288,299.3,15 / 20,52516,2018-07-24 07:56:25:169
-1.506,-0.9002,9.1327,-1.2127,-1.2852,9.6461,0.3759,1.0326,0.3712,0.0213,-0.0778,-0.0085,0,-0.3,6.12,-11.64,19.36,7.6,7.36,3.1,987.8,71.138,42.394733,-83.28197,500,623.5641328,,16.09,29.361288,299.3,15 / 20,53016,2018-07-24 07:56:25:669
-2.375,-0.5124,9.2213,-1.1392,-1.2016,9.6659,-0.8863,0.7826,0.3814,0,-0.0863,0,0,0.3,6.12,-11.82,16.57,7.23,6.34,3.1,987.8,71.856,42.394733,-83.28197,500,623.5641328,,16.09,29.361288,299.3,15 / 20,53516,2018-07-24 07:56:26:169
-0.8523,-0.8823,8.9088,-1.2113,-1.1071,9.6684,0.1375,0.3026,-0.0054,0.0021,-0.0011,0.0064,0,-0.06,6.06,-11.34,15.46,6.55,6.81,3.1,987.81,72.034,42.394733,-83.28197,500,623.5641328,,16.09,29.361288,299.3,15 / 20,54016,2018-07-24 07:56:26:669
-1.8543,-1.2881,10.5297,-1.1167,-1.1634,9.6731,-0.3988,0.0968,0.5285,0.0181,0.0309,0.0192,0,-0.3,6.18,-11.58,17.62,7.04,6.83,3.1,987.81,73.324,42.394733,-83.28197,500,623.5641328,,16.09,29.361288,299.3,15 / 20,54516,2018-07-24 07:56:27:169
-1.6628,-2.0602,8.7664,-1.2462,-1.118,9.6627,-0.4166,-0.9422,-0.8963,0.0149,0.2759,0.0075,0,0.72,6.18,-11.88,5.95,6.67,7.03,3.1,987.8,72.205,42.394733,-83.28197,500,623.5641328,,16.09,29.361288,299.3,15 / 20,55016,2018-07-24 07:56:27:669
-1.6173,-1.3479,9.8857,-1.3529,-1.1465,9.645,-0.2644,-0.2015,0.2407,-0.0533,-0.0852,0.0085,0,1.32,6.12,-11.7,9.8,6.7,8.51,3.1,987.81,72.2,42.394733,-83.28197,500,623.5641328,,16.09,29.361288,299.3,15 / 20,55516,2018-07-24 07:56:28:169
-2.4146,-1.4485,5.3882,-1.4377,-1.1134,9.6366,1.9285,-0.4667,1.4426,0.0245,-0.1672,0.0437,0,0.18,6.12,-11.58,21,6.52,8.49,3.1,987.82,73.765,42.394733,-83.28197,500,623.5641328,,16.09,29.361288,299.3,15 / 20,56016,2018-07-24 07:56:28:669
-0.9852,-1.3001,9.7827,-1.3366,-1.1765,9.6436,0.3645,-0.2265,-1.5249,-0.0053,0.1577,0.0011,0,0.42,6.18,-11.52,18.78,6.77,7.42,3.1,987.8,72.576,42.394733,-83.28197,500,623.5641328,,16.09,29.361288,299.3,15 / 20,56516,2018-07-24 07:56:29:169
-1.2127,-1.4425,9.5708,-1.2878,-1.3236,9.6312,-0.6755,-0.4768,-0.4889,-0.0575,-0.0533,-0.0075,0,0.3,6.18,-12.06,20.56,7.34,7.96,3.1,987.79,72.253,42.394733,-83.28197,500,623.5641328,,16.09,29.361288,299.3,15 / 20,57016,2018-07-24 07:56:29:669
-1.9501,-1.2306,8.3438,-1.2772,-1.4192,9.619,-0.0216,-0.2173,-0.7557,-0.0096,0.0852,-0.0138,0,0.06,6.12,-12.24,20.4,8.2,7.56,3.1,987.84,71.851,42.394733,-83.28197,500,623.5641328,,16.09,29.361288,299.3,20-Dec,57516,2018-07-24 07:56:30:169
-2.4828,-0.9194,7.7895,-1.5864,-1.3224,9.5867,-0.8964,0.403,-1.7972,0.016,0.0842,0.0043,0,-0.06,6.06,-12.24,24.7,7.76,9.59,3.1,987.79,71.84,42.394733,-83.28197,500,623.5641328,,16.09,29.361288,299.3,20-Dec,58015,2018-07-24 07:56:30:668
-1.992,0.2454,10.5105,-1.5812,-1.1891,9.605,-0.1654,0.0183,0.7212,-0.0298,0.0916,-0.0011,0,0.24,6.18,-11.76,24.46,7.07,9.82,3.1,987.85,70.818,42.39453,-83.28404,487.1,623.5641328,,50.83,53.829033,266.9,20-Dec,58515,2018-07-24 07:56:31:168
-1.0139,-1.2629,9.5732,-1.882,-1.2069,9.5484,-0.1758,-0.4942,-1.6451,-0.0543,0.3089,0.0043,0,0.06,5.88,-11.52,27.26,7.01,11.19,3.1,987.86,74.243,42.39453,-83.28404,487.1,623.5641328,,50.83,53.829033,266.9,20-Dec,59016,2018-07-24 07:56:31:669
-1.5083,-1.3838,7.1084,-1.6957,-1.391,9.5583,0.1873,0.0071,-2.4499,-0.0149,0.4165,-0.016,0,0,5.76,-11.04,23.56,8.21,10.03,3.1,987.84,71.212,42.39453,-83.28404,487.1,623.5641328,,50.83,53.829033,266.9,20-Dec,59515,2018-07-24 07:56:32:168
-1.1121,-1.8196,8.7604,-1.6995,-1.514,9.5389,0.6401,-0.2182,0.9046,0.0277,0.2876,0.0064,0,0.18,5.7,-11.16,25.35,8.86,10.58,3.1,987.83,72.205,42.39453,-83.28404,487.1,623.5641328,,50.83,53.829033,266.9,20-Dec,60016,2018-07-24 07:56:32:669
-2.2913,-1.312,10.7907,-1.7754,-1.5577,9.518,0.7399,1.0836,-1.3873,0.0639,-0.0629,0,0,0.48,5.58,-12.78,29.81,9,9.96,3.1,987.82,73.123,42.39453,-83.28404,487.1,623.5641328,,50.83,53.829033,266.9,20-Dec,60515,2018-07-24 07:56:33:168
-1.6688,-2.1536,8.2169,-1.5801,-1.4908,9.563,-0.0886,-0.6628,-1.3461,-0.0383,0.0682,-0.0064,0,0.48,5.4,-12.3,30.11,8.52,8.86,3.1,987.86,73.326,42.39453,-83.28404,487.1,623.5641328,,50.83,53.829033,266.9,20-Dec,61016,2018-07-24 07:56:33:669
-1.2881,-1.4808,9.0154,-1.6217,-1.5502,9.5466,-0.1261,-0.1245,0.7652,-0.0373,-0.1662,0.017,0,-0.18,5.58,-12.36,27.72,8.92,10.33,3.1,987.84,71.483,42.39453,-83.28404,487.1,623.5641328,,50.83,53.829033,266.9,20-Dec,61516,2018-07-24 07:56:34:169
-1.3599,-0.9182,10.7057,-1.7566,-1.5264,9.5265,0.0221,0.3174,-1.2605,-0.0575,0.1949,-0.017,0,-0.06,5.7,-11.22,24.42,8.84,10.14,3.1,987.84,70.193,42.39453,-83.28404,487.1,623.5641328,,50.83,53.829033,266.9,20-Dec,62015,2018-07-24 07:56:34:668
-0.644,-1.2917,9.5972,-1.3556,-1.4206,9.6081,-1.0961,-0.5474,-1.5312,-0.0011,0.2248,-0.0192,0,1.44,5.82,-11.04,8.66,8.34,8.62,3.1,987.87,72.13,42.39453,-83.28404,487.1,623.5641328,,50.83,53.829033,266.9,20-Dec,62515,2018-07-24 07:56:35:168
-0.9182,-1.1169,8.7005,-1.4389,-1.4106,9.5974,0.7481,0.0758,-0.2864,0.0234,0.0905,-0.0352,0,0.72,5.7,-10.98,8.48,8.21,8.57,3.1,987.83,71.072,42.39453,-83.28404,487.1,623.5641328,,50.83,53.829033,266.9,20-Dec,63016,2018-07-24 07:56:35:669
-1.6771,-2.1201,9.5589,-1.4063,-1.5853,9.5749,-0.2708,-0.5348,-0.0161,0.0575,-0.0852,-0.0245,0,-0.6,5.64,-11.64,33.19,8.8,8.21,3.1,987.84,72.67,42.39453,-83.28404,487.1,623.5641328,,50.83,53.829033,266.9,20-Dec,63516,2018-07-24 07:56:36:169
-0.9816,-0.6009,11.2312,-1.2621,-1.7319,9.5697,-1.611,0.0547,0.8858,0.0213,-0.0394,-0.0011,0,-0.54,5.88,-11.82,34.23,9.85,7.98,3.1,987.8,72.287,42.39453,-83.28404,487.1,623.5641328,,50.83,53.829033,266.9,20-Dec,64016,2018-07-24 07:56:36:669
-0.9409,-1.8256,8.6969,-1.4731,-1.8042,9.526,0.7632,-0.1435,0.617,0.0288,-0.0053,0.0096,0,-0.3,6,-11.82,27.45,10.8,9.15,3.1,987.87,70.312,42.39453,-83.28404,487.1,623.5641328,,50.83,53.829033,266.9,20-Dec,64516,2018-07-24 07:56:37:169
-2.8132,-2.3224,8.2109,-1.6226,-1.8395,9.4949,0.0592,0.6568,2.3372,0.0895,-0.3569,0.0096,0,0.24,5.94,-11.76,29.13,10.95,9.74,3.1,987.86,73.402,42.39453,-83.28404,487.1,623.5641328,,50.83,53.829033,266.9,20-Dec,65016,2018-07-24 07:56:37:669
-1.3132,-2.0554,9.7372,-1.6855,-1.9062,9.4708,0.3723,-0.1492,0.2664,0.0426,-0.0618,-0.0011,0,0.78,5.76,-12.06,16.67,11.12,9.86,3.1,987.89,70.272,42.39453,-83.28404,487.1,623.5641328,,50.83,53.829033,266.9,16 / 20,65516,2018-07-24 07:56:38:169
-2.1368,-2.7007,9.8426,-1.4713,-2.4226,9.3881,-0.6656,-0.2781,0.4544,-0.0011,0.1087,0.0128,0,1.26,5.82,-12.24,17.12,14.17,8.98,3.1,987.88,70.92,42.39453,-83.28404,487.1,623.5641328,,50.83,53.829033,266.9,16 / 20,66015,2018-07-24 07:56:38:668
-1.239,-3.4261,8.2241,-1.7066,-2.7031,9.271,0.4676,-0.723,-1.0469,-0.0352,0.1055,0.0213,0,1.86,5.7,-12.24,4.31,15.71,10.34,3.1,987.86,71.122,42.39453,-83.28404,487.1,623.5641328,,50.83,53.829033,266.9,16 / 20,66516,2018-07-24 07:56:39:169
-0.9852,-3.3914,8.5557,-1.8879,-3.0871,9.1146,-0.1759,0.0021,0.4586,-0.0181,0.0394,0.0043,0,2.04,5.52,-12.48,12.35,18.02,11.47,3.1,987.9,68.684,42.39453,-83.28404,487.1,623.5641328,,50.83,53.829033,266.9,16 / 20,67016,2018-07-24 07:56:39:669
-2.0877,-3.6464,8.6981,-1.7411,-3.2436,9.0894,-0.3467,-0.4028,-0.3913,0.0117,0.0831,0,0,2.04,5.46,-12.36,26.37,19.18,11.16,3.1,987.91,70.234,42.39453,-83.28404,487.1,623.5641328,,50.83,53.829033,266.9,16 / 20,67516,2018-07-24 07:56:40:169
-2.2158,-3.8415,8.9088,-1.7894,-3.3921,9.0256,-0.4264,-0.4494,-0.1168,0.0053,-0.0043,-0.0085,0,1.86,5.28,-12.36,37.53,20,11.42,3.1,987.89,69.149,42.39453,-83.28404,487.1,623.5641328,,50.83,53.829033,266.9,16 / 20,68016,2018-07-24 07:56:40:669
-2.2362,-3.3471,9.7025,-1.7793,-3.4768,8.9953,0.0698,-0.5646,0.4606,-0.0309,0.0479,0,0,1.8,5.16,-12.3,44.74,20.67,11.26,3.1,987.91,67.305,42.39453,-83.28404,487.1,623.5641328,,50.83,53.829033,266.9,16 / 20,68517,2018-07-24 07:56:41:170
-1.7382,-4.0211,8.4886,-1.7642,-3.5868,8.955,0.1014,3.00E-04,0.684,0.0256,-0.0916,-0.0021,0,1.68,5.1,-12.18,59.29,21.36,11.27,3.1,987.92,64.484,42.39453,-83.28404,487.1,623.5641328,,50.83,53.829033,266.9,16 / 20,69015,2018-07-24 07:56:41:668
-1.6628,-3.626,9.3278,-1.8058,-3.5674,8.9545,-0.5226,0.34,0.0944,0.0309,0.0128,-0.0107,0,1.56,4.86,-11.64,62.36,21.48,11.26,3.1,987.91,63.571,42.39453,-83.28404,487.1,623.5641328,,50.83,53.829033,266.9,16 / 20,69516,2018-07-24 07:56:42:169
-1.7597,-2.8814,9.2895,-1.7819,-3.418,9.0173,-0.197,0.4636,0.2315,0.0138,0.0213,0.0053,0,1.26,4.86,-11.46,55,20.65,11.17,3.1,987.92,65.894,42.39453,-83.28404,487.1,623.5641328,,50.83,53.829033,266.9,16 / 20,70016,2018-07-24 07:56:42:669
-1.7657,-2.6061,9.244,-1.8129,-3.274,9.0645,-0.0414,0.4033,0.0167,0.0021,0.0075,0.0032,0,0.84,4.62,-11.46,48.85,19.64,11.25,3.1,987.87,63.108,42.39453,-83.28404,487.1,623.5641328,,50.83,53.829033,266.9,16 / 20,70516,2018-07-24 07:56:43:169
-1.6257,-1.3024,9.4152,-1.8392,-2.9721,9.1626,0.2327,1.6769,0.0706,-0.0064,-0.0138,0.0064,0,1.08,4.14,-11.46,73.57,18.3,11.35,3.1,987.91,62.917,42.39453,-83.28404,487.1,623.5641328,,50.83,53.829033,266.9,16 / 20,71016,2018-07-24 07:56:43:669
-1.9213,-1.4257,9.396,-1.8387,-2.3086,9.352,0.2286,0.932,0.2811,-0.0256,-0.0277,-0.0202,0,1.02,3.3,-11.52,88.51,13.91,10.99,3.1,987.9,59.932,42.39453,-83.28404,487.1,623.5641328,,50.83,53.829033,266.9,16 / 20,71516,2018-07-24 07:56:44:169
-1.4724,-1.0307,8.9914,-1.7544,-2.0664,9.4246,0.1287,0.9327,0.4144,-0.0256,-0.016,-0.0469,0,1.08,4.98,-11.64,28.22,12.38,10.68,3.1,987.89,55.793,42.39453,-83.28404,487.1,623.5641328,,50.83,53.829033,266.9,16 / 20,72015,2018-07-24 07:56:44:668
-1.8148,-0.8823,8.7352,-1.6185,-1.6714,9.5267,0.024,0.8275,0.1459,0.0863,0.1033,-0.0874,0,0.84,6.78,-11.52,12.48,10.08,9.82,3.1,987.89,59.419,42.39453,-83.28404,487.1,623.5641328,,50.83,53.829033,266.9,16 / 20,72516,2018-07-24 07:56:45:169
-1.3731,-0.1137,9.42,-1.5178,-1.0294,9.6336,0.3064,0.9037,-0.0089,0.0383,0.0352,-0.1321,0,0.36,7.02,-11.28,16.86,6.35,9.12,3.1,987.95,58.584,42.39453,-83.28404,487.1,623.5641328,,50.83,53.829033,266.9,16 / 20,73016,2018-07-24 07:56:45:669
-0.917,0.0898,9.7121,-1.3585,-0.6606,9.6896,-0.807,-0.1343,0.0536,-0.0586,0.0117,-0.1577,0,0.12,7.32,-11.04,13.28,3.7,7.75,3.1,987.87,59.714,42.39453,-83.28404,487.1,623.5641328,,50.83,53.829033,266.9,18 / 20,73516,2018-07-24 07:56:46:169
-2.3559,0.2119,9.8833,-1.3718,-0.2662,9.7066,0.1735,1.0503,0.5789,-0.0224,0.0735,-0.0671,0,-0.9,8.52,-10.92,15.61,1.74,7.47,3.1,987.93,67.794,42.39453,-83.28404,487.1,623.5641328,,50.83,53.829033,266.9,18 / 20,74016,2018-07-24 07:56:46:669
-0.6333,-0.2334,11.3377,-1.4884,0.0095,9.693,0.8552,-0.2429,1.6447,0.1108,-0.0085,-0.0032,0,-1.32,10.14,-10.92,14.81,0.13,8.63,3.1,987.94,67.28,42.394653,-83.28601,506.45,622.5241522,,12.71,44.041935,283.6,18 / 20,74516,2018-07-24 07:56:47:169
-2.9532,0.4214,9.2452,-1.5574,0.0419,9.6821,-1.3959,0.3795,-0.4369,-0.0618,-0.1012,-0.0053,0,-1.44,10.26,-11.16,14.88,-0.26,8.8,3.1,987.94,66.443,42.394653,-83.28601,506.45,622.5241522,,12.71,44.041935,283.6,18 / 20,75016,2018-07-24 07:56:47:669
-1.9297,-0.2622,9.3913,-1.7762,-0.0378,9.6444,-0.8921,0.1001,1.0529,-0.0021,-0.1609,0.0373,0,-1.38,9.84,-11.28,16.16,0.11,9.98,3.1,987.91,70.307,42.394653,-83.28601,506.45,622.5241522,,12.71,44.041935,283.6,18 / 20,75516,2018-07-24 07:56:48:169
-1.7849,-0.656,9.4344,-1.7326,-0.0764,9.6521,0.162,-0.9507,-0.8809,0.0618,-0.032,0.0852,0,-0.96,9.48,-11.34,18.57,0.63,10.48,3.1,987.93,71.682,42.394653,-83.28601,506.45,622.5241522,,12.71,44.041935,283.6,18 / 20,76016,2018-07-24 07:56:48:669
-2.2601,-2.1775,10.1933,-2.0187,-0.7176,9.5698,0.1285,-1.4814,-0.9841,-0.0011,-0.2333,0.0788,0,-0.24,9,-11.7,16.76,4.1,11.79,3.1,987.96,72.672,42.394653,-83.28601,506.45,622.5241522,,12.71,44.041935,283.6,18 / 20,76516,2018-07-24 07:56:49:169
-3.8211,-2.6791,10.6303,-2.2967,-1.208,9.4571,-1.5245,-1.4711,1.1732,-0.1065,0.2162,0.0703,0,-0.18,7.62,-11.52,22.83,6.96,13.23,3.1,987.92,71.804,42.394653,-83.28601,506.45,622.5241522,,12.71,44.041935,283.6,18 / 20,77016,2018-07-24 07:56:49:669
-3.4058,-1.9106,9.5624,-2.5603,-1.1897,9.3915,-0.8454,-0.7209,0.171,-0.0277,-0.1044,0.1321,0,-0.12,7.56,-11.16,23.2,6.87,15.07,3.1,987.91,71.083,42.394653,-83.28601,506.45,622.5241522,,12.71,44.041935,283.6,18 / 20,77515,2018-07-24 07:56:50:168
-3.2286,-0.723,9.3697,-2.7918,-1.1885,9.3254,-0.4368,0.4655,0.0443,-0.017,-0.0479,0.2226,0,0.24,7.02,-10.98,29.06,7.21,16.5,3.1,987.9,66.919,42.394653,-83.28601,506.45,622.5241522,,12.71,44.041935,283.6,18 / 20,78016,2018-07-24 07:56:50:669
-3.0035,-0.255,8.6754,-2.8492,-0.9812,9.3322,-0.1747,0.5885,0.1417,-0.0362,-0.0053,0.2386,0,0.48,4.62,-10.86,39.14,5.9,16.73,3.1,987.91,69.359,42.394653,-83.28601,506.45,622.5241522,,12.71,44.041935,283.6,18 / 20,78516,2018-07-24 07:56:51:169
-1.8435,-0.0539,9.7803,-2.6897,-0.8721,9.3902,0.8462,0.8182,0.3901,-0.0032,-0.0714,0.1012,0,0.6,3.48,-10.92,45.86,5.17,16,3.1,987.9,65.432,42.394653,-83.28601,506.45,622.5241522,,12.71,44.041935,283.6,18 / 20,79016,2018-07-24 07:56:51:669
-2.5271,-0.808,9.5241,-2.4545,-0.6946,9.4691,-0.0725,-0.1135,0.0551,-0.0032,-0.0224,0.0501,0,-0.12,1.32,-10.68,85.33,4.14,14.76,3.1,987.87,64.012,42.394653,-83.28601,506.45,622.5241522,,12.71,44.041935,283.6,18 / 20,79516,2018-07-24 07:56:52:169
-1.0942,0.0814,9.5217,-2.2004,-0.6363,9.5354,0.8908,0.8649,-0.101,-0.0192,0.0053,0.0373,0,-0.3,1.2,-10.62,83.78,3.88,13.17,3.1,987.84,61.875,42.394653,-83.28601,506.45,622.5241522,,12.71,44.041935,283.6,18 / 20,80016,2018-07-24 07:56:52:669
-1.9154,-0.4561,9.6115,-1.8651,-0.4686,9.6162,-0.0502,0.0125,-0.0047,-0.0181,-0.016,0.0011,0,-0.54,1.02,-11.28,80.61,2.66,10.94,3.1,987.85,68.311,42.394653,-83.28601,506.45,622.5241522,,12.71,44.041935,283.6,18 / 20,80516,2018-07-24 07:56:53:169
-1.5036,-0.8727,9.074,-1.7926,-0.5606,9.6251,0.2136,-0.342,0.8136,0.0032,-0.13,0.0064,0,-0.66,0.66,-11.4,82.14,3.14,10.67,3.1,987.86,65.065,42.394653,-83.28601,506.45,622.5241522,,12.71,44.041935,283.6,18 / 20,81015,2018-07-24 07:56:53:668
-1.4449,-0.1125,10.0149,-1.5797,-0.6619,9.6559,0.0343,-0.5257,-0.7016,-0.0021,0.0202,0.0021,0,-0.9,0.42,-11.46,104.38,3.86,9.52,3.1,987.82,65.387,42.394653,-83.28601,506.45,622.5241522,,12.71,44.041935,283.6,18 / 20,81516,2018-07-24 07:56:54:169
-1.6556,-0.5291,10.5572,-1.6115,-0.6149,9.6538,-0.238,-0.4374,-0.8479,-0.017,0.0905,0.0138,0,-1.2,0.48,-11.52,104.25,3.62,9.19,3.1,987.84,66.46,42.394653,-83.28601,506.45,622.5241522,,12.71,44.041935,283.6,18 / 20,82016,2018-07-24 07:56:54:669
-1.1815,-0.3244,9.5409,-1.584,-0.6336,9.6571,0.5641,0.0099,-0.9123,-0.0032,-0.0064,0.0288,0,-1.08,0.48,-11.46,103.87,3.65,9.28,3.1,987.76,65.679,42.394653,-83.28601,506.45,622.5241522,,12.71,44.041935,283.6,17 / 20,82516,2018-07-24 07:56:55:169
-1.8579,-1.0546,9.1399,-1.566,-0.7107,9.6547,-0.2919,-0.344,-0.5148,-0.0224,0.0394,0.0096,0,-0.72,0.3,-11.46,105.32,4.09,9.39,3.1,987.8,67.26,42.394653,-83.28601,506.45,622.5241522,,12.71,44.041935,283.6,17 / 20,83016,2018-07-24 07:56:55:669
-1.4401,-1.3838,10.1394,-1.6034,-0.8401,9.6381,0.1633,-0.5438,0.5013,-0.0128,-0.0554,-0.0085,0,-0.42,0.12,-11.22,116.47,4.78,9.5,3.1,987.79,69.033,42.394497,-83.286766,483.87,622.5241522,,36.97,44.041935,249.9,17 / 20,83516,2018-07-24 07:56:56:169
-1.8076,-1.1109,8.4623,-1.544,-0.8825,9.6441,0.0164,0.2313,0.3817,0.0096,-0.0682,0.0096,0,-0.84,0.42,-11.46,109.72,5.23,9.08,3.1,987.84,67.254,42.394497,-83.286766,483.87,622.5241522,,36.97,44.041935,249.9,17 / 20,84016,2018-07-24 07:56:56:669
-1.5335,-0.7841,9.9599,-1.4592,-0.9375,9.6521,-0.0647,-0.0178,-0.1842,-0.0181,0.0405,0.0053,0,-0.72,0.48,-12,112.29,5.52,8.45,3.1,987.8,68.03,42.394497,-83.286766,483.87,622.5241522,,36.97,44.041935,249.9,17 / 20,84516,2018-07-24 07:56:57:169
-1.4581,-0.9086,10.228,-1.4308,-0.9289,9.6571,0.1368,-0.4178,0.189,0.0107,0.017,-0.0181,0,-0.84,0.36,-11.82,111.5,5.28,8.38,3.1,987.8,67.07,42.394497,-83.286766,483.87,622.5241522,,36.97,44.041935,249.9,17 / 20,85016,2018-07-24 07:56:57:669
-1.5574,-1.3443,8.9615,-1.6934,-1.0087,9.6065,0.2999,-0.0412,-0.5768,0.0021,0.0213,-0.0085,0,-0.72,0.42,-11.82,111.37,5.92,9.99,3.1,987.79,66.377,42.394497,-83.286766,483.87,622.5241522,,36.97,44.041935,249.9,17 / 20,85516,2018-07-24 07:56:58:169
-1.8555,-0.5686,10.0497,-1.5481,-0.9815,9.6338,0.9388,0.6619,-0.3347,0.0075,-0.0383,0.0096,0,-0.54,0.42,-11.58,111.55,5.89,9.81,3.1,987.83,66.716,42.394497,-83.286766,483.87,622.5241522,,36.97,44.041935,249.9,17 / 20,86016,2018-07-24 07:56:58:669
-2.4301,-0.9134,9.1973,-1.2721,-0.9949,9.6728,0.1265,0.2443,-0.7304,0.0128,0.2823,0.0107,0,-0.48,0.36,-11.58,128.8,6.04,7.46,3.1,987.8,66.583,42.394497,-83.286766,483.87,622.5241522,,36.97,44.041935,249.9,17 / 20,86516,2018-07-24 07:56:59:169
-0.7889,-0.8619,8.7293,-1.5097,-0.8688,9.6507,0.4407,0.9347,0.6731,-0.0362,-0.033,-0.0096,0,-0.54,0.48,-12.06,109.64,4.95,8.82,3.1,987.78,71.3,42.394497,-83.286766,483.87,622.5241522,,36.97,44.041935,249.9,17 / 20,87016,2018-07-24 07:56:59:669
-1.2677,-0.7051,8.345,-1.2465,-0.9079,9.6846,-0.2247,-0.2317,-0.2718,-0.0224,-0.0671,-0.0064,0,-0.42,0.48,-12.06,125.11,5.42,7.66,3.1,987.76,68.322,42.394497,-83.286766,483.87,622.5241522,,36.97,44.041935,249.9,17 / 20,87515,2018-07-24 07:57:00:168
-0.2945,-0.7853,9.809,-1.3151,-1.0227,9.6641,-0.7044,-0.2056,-0.395,0.0085,-0.2312,-0.0096,0,0.42,0.54,-12.54,100.27,5.93,8.17,3.1,987.81,68.026,42.394497,-83.286766,483.87,622.5241522,,36.97,44.041935,249.9,17 / 20,88016,2018-07-24 07:57:00:669
-2.5738,-0.8248,9.5014,-1.488,-1.0954,9.631,-1.385,0.6225,0.1553,-0.0447,0.0746,0.0075,0,0.6,0.66,-12.48,113.97,6.48,8.65,3.1,987.82,69.13,42.394497,-83.286766,483.87,622.5241522,,36.97,44.041935,249.9,17 / 20,88516,2018-07-24 07:57:01:169
-1.5694,-1.9237,10.0856,-1.5554,-1.0875,9.6212,-0.014,-0.8362,0.4643,-0.0149,-0.0181,0.0256,0,0.42,1.02,-12.06,99.56,6.33,8.94,3.1,987.82,66.979,42.394497,-83.286766,483.87,622.5241522,,36.97,44.041935,249.9,17 / 20,89016,2018-07-24 07:57:01:669
-1.2234,-1.968,9.0489,-1.8592,-1.2323,9.5496,0.6358,-0.7357,-0.5007,0.0043,-0.0948,0.0096,0,0.54,1.08,-12.06,110.02,6.91,10.62,3.1,987.81,70.315,42.394497,-83.286766,483.87,622.5241522,,36.97,44.041935,249.9,17 / 20,89516,2018-07-24 07:57:02:169
-2.4888,-2.308,10.0533,-1.9319,-1.4177,9.5094,0.317,-0.2103,-0.1349,-0.0075,0.0298,0.033,0,0.72,1.02,-11.64,116.67,8.1,11.37,3.1,987.82,70.651,42.394497,-83.286766,483.87,622.5241522,,36.97,44.041935,249.9,17 / 20,90016,2018-07-24 07:57:02:669
-2.4493,-1.8232,9.7109,-2.0286,-1.4909,9.478,0.3155,0.5679,0.8625,0.0437,-0.1257,0.0149,0,1.14,0.96,-10.38,115.25,8.67,11.97,3.1,987.84,69.436,42.394497,-83.286766,483.87,622.5241522,,36.97,44.041935,249.9,17 / 20,90516,2018-07-24 07:57:03:169
-4.1049,-1.8663,9.074,-1.6688,-1.6479,9.5221,-0.7194,0.2724,0.0571,-0.0064,0.277,-0.0075,0,1.32,0.9,-10.26,133.22,9.77,10.05,3.1,987.88,69.144,42.394497,-83.286766,483.87,622.5241522,,36.97,44.041935,249.9,17 / 20,91016,2018-07-24 07:57:03:669
-2.4924,-2.9939,10.0952,-1.8977,-1.6857,9.4725,0.4648,-0.6821,-0.159,0.0117,-0.0213,-0.0202,0,1.26,0.66,-10.5,127.79,9.7,10.88,3.1,987.89,70.417,42.394497,-83.286766,483.87,622.5241522,,36.97,44.041935,249.9,17 / 20,91515,2018-07-24 07:57:04:168
-2.3774,-1.9429,9.2153,-1.9938,-1.8034,9.431,0.0629,-0.2221,-0.8525,0.0266,0.0288,0.0043,0,1.2,0.6,-10.8,126.42,10.6,12.47,3.1,987.91,70.382,42.394497,-83.286766,483.87,622.5241522,,36.97,44.041935,249.9,17 / 20,92016,2018-07-24 07:57:04:669
-1.986,-2.1488,8.4575,-1.8288,-1.7989,9.4652,-0.3763,0.0595,-0.4594,-0.0138,0.1001,0.0011,0,1.14,0.42,-10.68,150.58,10.71,11.18,3.1,987.93,70.49,42.394497,-83.286766,483.87,622.5241522,,36.97,44.041935,249.9,17 / 20,92516,2018-07-24 07:57:05:169
-1.3838,-1.8555,9.1291,-1.6778,-1.7973,9.4934,0.294,-0.0582,-0.3643,-0.0415,0.0405,0.0021,0,1.2,0.12,-10.74,155.76,10.51,9.89,3.1,987.93,66.903,42.394497,-83.286766,483.87,622.5241522,,36.97,44.041935,249.9,17 / 20,93016,2018-07-24 07:57:05:669
-1.737,-1.4617,9.9575,-1.9319,-1.8393,9.4369,-0.3378,0.4088,0.5625,0.0011,0.0309,0.016,0,0.6,-0.12,-10.74,149.39,10.94,11.6,3.1,987.9,69.502,42.394497,-83.286766,483.87,622.5241522,,36.97,44.041935,249.9,17 / 20,93516,2018-07-24 07:57:06:169
-2.8443,-2.9652,8.3618,-1.9008,-1.8921,9.4328,-0.4192,-0.769,0.3811,-0.0309,0.1044,0.0298,0,0.78,-0.6,-10.86,158.92,11.12,11.4,3.1,987.9,71.664,42.394497,-83.286766,483.87,622.5241522,,36.97,44.041935,249.9,17 / 20,94016,2018-07-24 07:57:06:669
-2.5295,-3.2848,9.5828,-2.0911,-2.4709,9.257,-0.4384,-0.814,0.3258,-0.0021,0.0362,0.0075,0,1.26,-0.78,-11.1,159.1,14.2,12.46,3.1,987.97,68.924,42.394497,-83.286766,483.87,622.5241522,,36.97,44.041935,249.9,17 / 20,94516,2018-07-24 07:57:07:169
-1.6352,-3.8966,9.4535,-2.0573,-2.835,9.1597,0.4221,-1.0615,0.2938,0.0107,0.0096,0.0192,0,1.8,-1.2,-11.04,174.13,16.6,12.49,3.1,987.99,68.832,42.394497,-83.286766,483.87,622.5241522,,36.97,44.041935,249.9,17 / 20,95016,2018-07-24 07:57:07:669
-0.9421,-3.6799,9.3015,-1.9614,-3.025,9.1199,0.331,-0.8452,-0.0028,-0.0138,-0.0234,-0.0032,0,1.02,-1.38,-10.92,162.86,17.79,12.09,3.1,987.96,68.661,42.394497,-83.286766,483.87,622.5241522,,36.97,44.041935,249.9,17 / 20,95516,2018-07-24 07:57:08:169
-1.6065,-3.8858,9.0453,-1.8629,-3.1267,9.1062,1.1745,-0.273,0.291,0.0234,-0.0831,-0.0234,0,-0.06,-1.8,-11.94,156.63,18.42,11.66,3.1,987.97,67.883,42.394497,-83.286766,483.87,622.5241522,,36.97,44.041935,249.9,17 / 20,96016,2018-07-24 07:57:08:669
-1.9956,-3.3399,9.2775,-1.6825,-3.1623,9.129,-0.2496,-0.3033,-0.0323,-0.0053,-0.016,0.0149,0,-0.12,-1.86,-11.94,159.24,18.83,10.38,3.1,988.01,64.361,42.394497,-83.286766,483.87,622.5241522,,36.97,44.041935,249.9,17 / 20,96516,2018-07-24 07:57:09:169
-1.6508,-3.4405,9.42,-1.6274,-3.1982,9.1265,-0.1574,-0.2937,-0.0166,0.0075,-0.0096,0.0128,0,-0.06,-1.56,-11.88,159.86,18.97,10.09,3.1,987.99,62.884,42.394497,-83.286766,483.87,622.5241522,,36.97,44.041935,249.9,17 / 20,97016,2018-07-24 07:57:09:669
-1.7909,-3.7828,9.323,-1.567,-3.2814,9.1076,-0.2239,-0.5015,0.2155,0.0053,0.0021,-0.0117,0,0,-1.02,-11.76,157.29,19.53,9.83,3.1,987.98,61.545,42.394497,-83.286766,483.87,622.5241522,,36.97,44.041935,249.9,17 / 20,97516,2018-07-24 07:57:10:169
-1.8483,-3.705,9.2871,-1.6509,-3.3483,9.0683,-0.3734,-0.194,-0.0134,0.0053,-0.0075,0,0,0,-1.2,-12.06,156.6,19.9,10.3,3.1,987.97,63.821,42.394497,-83.286766,483.87,622.5241522,,36.97,44.041935,249.9,17 / 20,98016,2018-07-24 07:57:10:669
-1.6065,-2.9568,9.329,-1.6708,-3.3853,9.0509,0.087,0.4871,-0.1301,0.0075,0.0064,0.0138,0,0.48,-2.04,-12,160.05,20.27,10.39,3.1,987.97,60.621,42.394497,-83.286766,483.87,622.5241522,,36.97,44.041935,249.9,16 / 21,98516,2018-07-24 07:57:11:169
-1.9597,-1.4114,9.4607,-1.7444,-2.9441,9.1902,-0.1267,1.5447,0.225,0.017,-0.0064,0.0021,0,0.84,-2.46,-12,167.69,18.36,10.66,3.1,987.98,60.294,42.394497,-83.286766,483.87,622.5241522,,36.97,44.041935,249.9,16 / 21,99016,2018-07-24 07:57:11:669
-1.9932,-1.2306,9.5457,-1.8305,-2.2216,9.3747,0.0875,1.131,-0.0732,0.0064,-0.0011,0.0043,0,0.42,-1.92,-11.46,154.73,13.38,11,3.1,987.99,61.561,42.394073,-83.28875,483.87,622.5241522,,10.51,53.829033,247.1,16 / 21,99516,2018-07-24 07:57:12:169
-1.9345,0.2693,9.487,-1.8627,-1.2127,9.5514,-0.0718,1.482,-0.0644,0.0053,-0.0053,0.0053,0,0.42,-1.5,-10.98,139.8,7.87,10.94,3.1,987.96,55.501,42.394073,-83.28875,483.87,616.9705137,,10.51,53.829033,247.1,16 / 21,100016,2018-07-24 07:57:12:669
-1.731,0.7242,9.4918,-1.8829,-0.4337,9.6144,0.1519,1.1579,-0.1226,0.0064,0.0053,0.0021,0,0.54,-1.56,-10.56,156.41,3.11,11.08,3.1,987.97,58.067,42.394073,-83.28875,483.87,616.9705137,,10.51,53.829033,247.1,16 / 21,100516,2018-07-24 07:57:13:169
-1.8735,0.6931,9.2153,-1.8813,0.0182,9.6245,0.0042,0.4714,-0.0022,0.0032,-0.0138,0.0011,0,0.72,-1.5,-10.14,136.85,0.07,11.13,3.1,987.96,67.326,42.394073,-83.28875,483.87,616.9705137,,10.51,53.829033,247.1,16 / 21,101016,2018-07-24 07:57:13:669
-2.1584,0.0994,9.7181,-1.9164,0.1066,9.617,-0.2419,-0.0072,0.1011,-0.0096,0.0543,0.0032,0,0.24,-1.38,-10.14,114.73,-0.62,11.18,3.1,987.98,65.972,42.394073,-83.28875,483.87,616.9705137,,10.51,53.829033,247.1,16 / 21,101516,2018-07-24 07:57:14:169
-1.6388,0.1903,9.3769,-1.9608,0.0907,9.6082,0.182,-0.0045,0.0225,0.0075,0.0138,0.0011,0,0.66,-1.32,-10.44,131.58,-0.51,11.58,3.1,987.94,64.316,42.394073,-83.28875,483.87,616.9705137,,10.51,53.829033,247.1,16 / 21,102016,2018-07-24 07:57:14:669
-1.7861,0.5638,9.3218,-1.9842,0.1958,9.6018,0.3956,-0.1096,-0.0286,-0.0117,0.0298,0.0043,0,0.96,-1.26,-10.32,127.1,-1.13,11.77,3.1,987.93,64.716,42.394073,-83.28875,483.87,616.9705137,,10.51,53.829033,247.1,16 / 21,102515,2018-07-24 07:57:15:168
-1.9776,-0.0156,9.2165,-1.9101,0.2239,9.6162,-0.0675,-0.2394,-0.3997,-0.0256,0.0202,0.0192,0,0.9,-1.32,-10.02,127.38,-1.37,11.39,3.1,987.93,64.901,42.394073,-83.28875,483.87,616.9705137,,10.51,53.829033,247.1,16 / 21,103016,2018-07-24 07:57:15:669
-2.4122,-0.1891,9.9012,-2.0737,0.1705,9.5834,0.4708,0.5166,-0.0317,0.0213,-0.0937,0.0224,0,1.08,-1.5,-10.62,121.32,-0.99,12.11,3.1,987.91,66.869,42.394073,-83.28875,483.87,616.9705137,,10.51,53.829033,247.1,16 / 21,103516,2018-07-24 07:57:16:169
-2.0399,0.4561,8.6251,-2.0668,0.1834,9.5846,-0.003,-0.169,-0.5501,-0.0245,-0.0554,0.0245,0,1.44,-1.62,-10.38,148.01,-0.99,12.23,3.1,987.88,66.847,42.394073,-83.28875,483.87,616.9705137,,10.51,53.829033,247.1,16 / 21,104016,2018-07-24 07:57:16:669
-2.745,-0.3998,8.7867,-2.158,0.1299,9.5654,0.2247,-0.4304,-0.0388,-0.0085,-0.0895,0.0266,0,1.02,-1.08,-10.26,124.56,-0.98,12.59,3.1,987.89,67.736,42.394073,-83.28875,483.87,616.9705137,,10.51,53.829033,247.1,16 / 21,104516,2018-07-24 07:57:17:169
-1.6723,-0.073,9.1746,-2.0831,0.0167,9.5828,-0.1004,-0.7697,-0.4454,-0.0245,-0.0181,0.0245,0,0.36,-2.04,-10.2,132.29,-0.25,12.43,3.1,987.84,68.681,42.394073,-83.28875,483.87,616.9705137,,10.51,53.829033,247.1,16 / 21,105016,2018-07-24 07:57:17:669
-1.9465,-0.5411,9.2057,-2.0977,-0.0015,9.5797,0.1871,-0.3206,-0.034,-0.0096,-0.0437,0.0138,0,0.48,-2.16,-10.26,132.97,-0.12,12.27,3.1,987.85,67.545,42.394073,-83.28875,483.87,616.9705137,,10.51,53.829033,247.1,16 / 21,105516,2018-07-24 07:57:18:169
-2.2889,-0.6189,8.5832,-1.8757,-0.0697,9.6253,-0.4096,-0.5097,-0.4005,-0.017,-0.0831,0.0309,0,0.78,-1.86,-10.38,155.71,0.39,11.04,3.1,987.85,69.085,42.394073,-83.28875,483.87,616.9705137,,10.51,53.829033,247.1,16 / 21,106016,2018-07-24 07:57:18:669
-1.998,-0.4741,10.2436,-2.0233,-0.1255,9.5948,-0.2715,0.3314,0.061,-0.0011,0.0788,0.0256,0,0.84,-1.98,-10.44,152.92,0.83,11.98,3.1,987.84,69.422,42.394073,-83.28875,483.87,616.9705137,,10.51,53.829033,247.1,16 / 21,106516,2018-07-24 07:57:19:169
-1.737,-0.097,10.1646,-1.9892,-0.0762,9.6025,0.2594,0.099,0.2963,0,-0.0479,0.0117,0,0.72,-2.28,-10.5,152.89,0.53,11.83,3.1,987.84,67.478,42.394073,-83.28875,483.87,616.9705137,,10.51,53.829033,247.1,16 / 21,107016,2018-07-24 07:57:19:669
-1.749,-0.2406,9.657,-1.697,-0.1661,9.6573,-0.0687,-0.6575,-0.7365,0.0043,-0.0256,0.0181,0,0.12,-2.46,-10.5,139.88,0.77,10.35,3.1,987.81,67.009,42.394073,-83.28875,483.87,616.9705137,,10.51,53.829033,247.1,16 / 21,107516,2018-07-24 07:57:20:169
-2.4541,-1.3108,8.6586,-1.9795,-0.422,9.5955,0.1408,-0.325,-0.7298,-0.0341,0.147,0.0202,0,-0.3,-2.52,-10.5,150.18,2.24,11.17,3.1,987.84,68.158,42.394073,-83.28875,483.87,616.9705137,,10.51,53.829033,247.1,16 / 21,108016,2018-07-24 07:57:20:669
-1.7645,-0.2418,9.2464,-2.0039,-0.5328,9.5849,0.2394,0.291,-0.3385,-0.0202,0.0543,0.0011,0,-0.66,-2.1,-10.86,128.46,3.1,11.83,3.1,987.88,69.462,42.394073,-83.28875,483.87,616.9705137,,10.51,53.829033,247.1,16 / 21,108516,2018-07-24 07:57:21:169
-1.9537,-0.5076,9.0884,-1.8959,-0.5779,9.6043,-0.0578,0.0703,-0.5159,0.0085,0.1246,0.0096,0,-0.66,-2.28,-11.1,130.2,3.37,11.11,3.1,987.83,68.765,42.394073,-83.28875,483.87,616.9705137,,10.51,53.829033,247.1,16 / 21,109016,2018-07-24 07:57:21:669
-1.7861,-1.2534,8.8765,-1.8491,-0.6462,9.609,-0.0986,-0.0505,-0.2034,0.016,0.1023,0.0021,0,-0.66,-2.4,-10.5,133.17,3.73,10.46,3.1,987.84,69.163,42.394073,-83.28875,483.87,616.9705137,,10.51,53.829033,247.1,16 / 21,109516,2018-07-24 07:57:22:169
-1.7861,-0.4477,9.5277,-1.6578,-0.6844,9.6413,-0.3665,-0.1033,-0.0668,0.0075,0.0288,0.0341,0,-0.24,-2.16,-10.44,147.84,4.04,9.74,3.1,987.81,67.222,42.394073,-83.28875,483.87,616.9705137,,10.51,53.829033,247.1,16 / 21,110016,2018-07-24 07:57:22:669
-2.7126,-0.6656,10.5093,-1.7494,-0.8037,9.6158,-1.1967,-0.9189,-1.3091,-0.016,-0.081,0.0479,0,-1.44,-2.4,-10.56,132.33,4.7,11.33,3.1,987.85,67.459,42.394073,-83.28875,483.87,616.9705137,,10.51,53.829033,247.1,16 / 21,110516,2018-07-24 07:57:23:169
-1.7777,-1.3503,9.3553,-1.9032,-0.9001,9.578,0.25,-0.1893,-0.0958,0.0256,-0.1278,-0.0011,0,-2.04,-2.46,-10.8,124.82,5.16,11.78,3.1,987.83,68.307,42.394073,-83.28875,483.87,616.9705137,,10.51,53.829033,247.1,16 / 21,111016,2018-07-24 07:57:23:669
-2.0722,-4.64,8.7532,-1.5922,-2.3304,9.3917,-0.48,-2.3096,-0.6385,0.0213,-0.1055,-0.0202,0,-0.72,-3.84,-10.8,155.3,12.38,9.76,3.1,987.87,68.968,42.394073,-83.28875,483.87,616.9705137,,10.51,53.829033,247.1,16 / 21,111516,2018-07-24 07:57:24:169
-2.2122,-5.4887,10.1215,-1.5038,-3.6915,8.96,-0.6593,-1.2417,0.4767,0.0256,-0.1598,-0.0021,0,-0.6,-4.26,-10.86,160.02,21.43,9.36,3.1,987.86,68.586,42.394073,-83.28875,483.87,616.9705137,,10.51,53.829033,247.1,16 / 21,112016,2018-07-24 07:57:24:669
-2.3044,-5.1439,8.5736,-1.5771,-4.248,8.697,-0.1312,-1.2383,0.7613,-0.0383,0.049,0.0224,0,-0.72,-3.96,-10.98,160.56,25.47,9.99,3.1,987.87,69.796,42.394073,-83.28875,483.87,616.9705137,,10.51,53.829033,247.1,16 / 21,112515,2018-07-24 07:57:25:168
-1.8627,-5.363,8.7963,-1.6955,-4.4888,8.5526,-0.1672,-0.8742,0.2437,-0.0245,-0.0543,0.0181,0,-1.5,-4.14,-10.8,159.72,27.01,11.08,3.1,987.87,69.492,42.394073,-83.28875,483.87,616.9705137,,10.51,53.829033,247.1,16 / 21,113016,2018-07-24 07:57:25:669
-2.1368,-5.1439,8.8286,-1.6847,-4.6435,8.4717,-0.4521,-0.5005,0.3569,0.0277,0.0852,0.0149,0,-3.24,-4.2,-10.74,148.46,28.09,11.38,3.1,987.88,66.751,42.394073,-83.28875,483.87,616.9705137,,10.51,53.829033,247.1,16 / 21,113516,2018-07-24 07:57:26:169
-1.5371,-4.5454,9.2452,-1.7734,-4.6905,8.4276,-0.1084,0.0206,0.887,0.0469,-0.0224,0.0021,0,-3.72,-4.5,-10.74,143.22,28.57,11.88,3.1,987.84,65.613,42.394073,-83.28875,483.87,616.9705137,,10.51,53.829033,247.1,16 / 21,114016,2018-07-24 07:57:26:669
-1.3934,-3.2286,9.1925,-1.7199,-4.085,8.7479,0.1924,1.0288,0.4554,0.0064,0.0117,0.0053,0,-4.14,-5.04,-10.56,145.31,25.12,11.28,3.1,987.86,65.665,42.394073,-83.28875,483.87,616.9705137,,10.51,53.829033,247.1,15 / 21,114516,2018-07-24 07:57:27:169
-1.8172,-3.2525,9.3697,-1.6911,-3.795,8.8831,-0.1189,0.5017,0.0629,-0.0032,0.0256,0.0032,0,-4.74,-5.4,-10.32,139.95,22.9,10.76,3.1,987.85,62.409,42.394073,-83.28875,483.87,616.9705137,,10.51,53.829033,247.1,15 / 21,115016,2018-07-24 07:57:27:669
-1.9022,-2.2218,9.098,-1.704,-3.4038,9.0378,0.1059,1.3747,0.5989,0.0138,0.0085,0.0075,0,-4.38,-5.64,-10.2,146.81,20.81,10.66,3.1,987.89,59.85,42.39341,-83.29019,477.42,616.9705137,,11.66,63.616123,238.1,15 / 21,115516,2018-07-24 07:57:28:169
-1.3611,-2.2027,9.3553,-1.6552,-2.8053,9.2499,0.1373,0.8157,-0.0538,0.0149,0.0192,0,0,-4.38,-7.02,-10.14,148.53,16.84,10.27,3.1,987.93,57.8,42.39341,-83.29019,477.42,616.9705137,,11.66,63.616123,238.1,15 / 21,116016,2018-07-24 07:57:28:669
-1.3252,-2.0626,9.4978,-1.6251,-2.5637,9.325,0.1036,0.7106,-0.087,0.0138,0.0192,-0.0011,0,-4.44,-7.14,-10.14,148.22,15.23,9.99,3.1,987.93,55.469,42.39341,-83.29019,477.42,616.9705137,,11.66,63.616123,238.1,15 / 21,116516,2018-07-24 07:57:29:169
-1.7095,-1.8507,9.1542,-1.601,-2.3664,9.3812,0.1322,0.4115,0.2303,-0.0096,-0.0266,0.0043,0,-4.44,-7.02,-10.2,148.12,14.11,9.62,3.1,987.91,56.892,42.39341,-83.29019,477.42,616.9705137,,11.66,63.616123,238.1,15 / 21,117016,2018-07-24 07:57:29:669
-1.5167,-1.9082,9.7264,-1.6047,-2.2706,9.4042,0.088,0.3625,0.3222,0.0011,-0.0138,0,0,-4.5,-7.08,-10.26,147.88,13.46,9.63,3.1,987.9,52.763,42.39341,-83.29019,477.42,616.9705137,,11.66,63.616123,238.1,15 / 21,117516,2018-07-24 07:57:30:169
-1.5479,-1.2462,9.6091,-1.5923,-1.9634,9.4752,0.0827,0.7113,-0.0576,-0.0043,0,0.0032,0,-4.62,-7.02,-10.26,142.83,11.78,9.57,3.1,987.92,54.728,42.39341,-83.29019,477.42,616.9705137,,11.66,63.616123,238.1,15 / 21,118016,2018-07-24 07:57:30:669
-1.5431,-1.2953,9.3853,-1.5825,-1.7918,9.5108,0.0394,0.4966,-0.1255,-0.0107,0.0064,0.0053,0,-4.74,-6.72,-10.26,142.44,10.66,9.46,3.1,987.9,55.99,42.39341,-83.29019,477.42,616.9705137,,11.66,63.616123,238.1,15 / 21,118516,2018-07-24 07:57:31:169
-1.5634,-0.929,9.487,-1.5676,-1.6917,9.5316,0.0042,0.7628,-0.0446,0.0128,0.0138,0,0,-4.68,-6.84,-10.26,142.2,9.98,9.39,3.1,987.89,56.281,42.39341,-83.29019,477.42,616.9705137,,11.66,63.616123,238.1,15 / 21,119016,2018-07-24 07:57:31:669
-1.5383,-1.0008,9.7492,-1.5946,-1.5015,9.5589,0.0755,0.454,0.0466,0,-0.0149,-0.0011,0,-4.62,-6.9,-10.44,141.7,8.89,9.4,3.1,987.91,60.166,42.39341,-83.29019,477.42,616.9705137,,11.66,63.616123,238.1,15 / 21,119516,2018-07-24 07:57:32:169
-1.4964,-0.741,9.4415,-1.6299,-1.309,9.5812,0.1336,0.568,-0.1397,-0.0128,-0.0043,0.0053,0,-4.92,-5.16,-10.14,133.18,7.87,9.58,3.1,987.9,57.582,42.39341,-83.29019,477.42,616.9705137,,11.66,63.616123,238.1,15 / 21,120016,2018-07-24 07:57:32:669
-1.585,0.486,9.4607,-1.6933,-0.648,9.6376,0.1083,1.134,-0.1769,0.0032,-0.0053,0.0362,0,-4.92,-4.86,-9.48,130.94,4.49,9.87,3.1,987.89,60.845,42.39341,-83.29019,477.42,616.9705137,,11.66,63.616123,238.1,15 / 21,120516,2018-07-24 07:57:33:169
-1.7968,0.2921,10.0604,-1.7479,-0.0799,9.6493,0.2683,0.9897,-0.6495,-0.0256,0.0181,0.0969,0,-4.92,-5.4,-8.76,128.17,0.9,10.23,3.1,987.88,63.29,42.39341,-83.29019,477.42,616.9705137,,11.66,63.616123,238.1,15 / 21,121016,2018-07-24 07:57:33:669
-1.8854,0.978,10.8074,-1.7517,0.1057,9.6484,-0.1338,0.8724,1.1591,0.0128,-0.1076,0.0916,0,-3.96,-5.58,-8.58,136.8,-0.47,10.49,3.1,987.86,64.334,42.39341,-83.29019,477.42,616.9705137,,11.66,63.616123,238.1,15 / 21,121516,2018-07-24 07:57:34:169
-1.3312,0.0192,9.4248,-1.6768,0.1517,9.661,0.2139,0.0865,0.1241,-0.0043,0.033,0.033,0,-4.44,-5.88,-8.82,137,-0.92,9.79,3.1,987.87,62.745,42.39341,-83.29019,477.42,616.9705137,,11.66,63.616123,238.1,15 / 21,122016,2018-07-24 07:57:34:669
-1.6556,-0.0491,9.9144,-1.6054,0.1375,9.6734,-0.3351,-0.1949,-0.2079,-0.0117,0.0288,0.0107,0,-5.1,-6.42,-9.54,131.67,-0.83,9.58,3.1,987.91,64.714,42.39341,-83.29019,477.42,616.9705137,,11.66,63.616123,238.1,15 / 21,122516,2018-07-24 07:57:35:169
-1.9513,0.1484,9.3027,-1.6782,0.0553,9.6618,-0.2731,0.0932,-0.3592,0.0043,0.0543,-0.0032,0,-5.82,-7.32,-9.66,132.39,-0.35,9.77,3.1,987.89,64.498,42.39341,-83.29019,477.42,616.9705137,,11.66,63.616123,238.1,15 / 21,123016,2018-07-24 07:57:35:669
-2.0758,0.5243,9.7707,-1.7588,0.277,9.6437,0.5126,0.567,-0.7887,-0.0075,0.0597,0.0107,0,-5.88,-7.08,-9.84,131.39,-1.44,10.3,3.1,987.84,65.199,42.39341,-83.29019,477.42,616.9705137,,11.66,63.616123,238.1,16 / 21,123517,2018-07-24 07:57:36:170
-1.3599,0.091,9.505,-1.8587,0.3622,9.6221,0.4988,-0.2712,-0.1171,0.0011,-0.0447,0.017,0,-5.28,-6.84,-9.78,134.34,-2.16,10.99,3.1,987.88,66.994,42.39341,-83.29019,477.42,616.9705137,,11.66,63.616123,238.1,16 / 21,124016,2018-07-24 07:57:36:669
-2.1632,-0.4286,9.3458,-1.751,0.1423,9.648,-0.4121,-0.5709,-0.3022,-0.0075,0.0341,0.0181,0,-5.04,-6.78,-9.72,135.68,-0.96,10.18,3.1,987.83,65.61,42.393257,-83.29036,474.19,623.0061456,,19.37,44.041935,228,16 / 21,124516,2018-07-24 07:57:37:169
-1.7406,-0.6369,8.3749,-1.6974,-0.081,9.6583,-0.0156,-0.2314,-0.2599,0.0075,-0.0277,0.016,0,-5.4,-6.78,-9.72,136.47,0.15,10.07,3.1,987.83,68.878,42.393257,-83.29036,474.19,623.0061456,,19.37,44.041935,228,16 / 21,125016,2018-07-24 07:57:37:669
-1.9154,-1.5742,9.7791,-1.5372,-0.5408,9.6703,-0.3781,-1.0334,0.1088,-0.0021,0.0256,0.0181,0,-5.58,-6.66,-9.72,134.83,2.83,8.91,3.1,987.85,67.428,42.393257,-83.29036,474.19,623.0061456,,19.37,44.041935,228,16 / 21,125515,2018-07-24 07:57:38:168
-1.2031,-1.2929,9.08,-1.6025,-0.9678,9.6263,0.3994,-0.3251,-0.5463,0.0149,-0.1044,0.0064,0,-6,-6.78,-9.78,135.85,5.39,9.55,3.1,987.83,65.711,42.393257,-83.29036,474.19,623.0061456,,19.37,44.041935,228,16 / 21,126016,2018-07-24 07:57:38:669
-1.7621,-1.7107,9.4703,-1.6119,-1.2372,9.5938,-0.3418,-0.5561,-0.5473,0.0234,-0.0639,-0.0032,0,-6.36,-6.84,-9.84,136.77,7.07,9.43,3.1,987.84,63.374,42.393257,-83.29036,474.19,623.0061456,,19.37,44.041935,228,16 / 21,126516,2018-07-24 07:57:39:169
-1.1887,-1.6951,9.0225,-1.6783,-1.3027,9.5737,0.2741,0.5246,0.4185,0.0277,-0.0437,-0.0202,0,-5.94,-7.14,-9.84,136.65,7.59,10.02,3.1,987.83,62.475,42.393257,-83.29036,474.19,623.0061456,,19.37,44.041935,228,16 / 21,127015,2018-07-24 07:57:39:668
-1.2749,-0.012,9.505,-1.5869,-1.0582,9.6194,-0.3021,0.8355,0.805,-0.0032,-0.0597,-0.0362,0,-5.52,-7.08,-9.9,136.48,6.48,9.42,3.1,987.81,63.828,42.393257,-83.29036,474.19,623.0061456,,19.37,44.041935,228,16 / 21,127515,2018-07-24 07:57:40:168
-2.1488,-0.103,9.2871,-1.6207,-0.7144,9.6454,0.1112,1.265,-0.0913,0,0.0149,0.0149,0,-4.98,-6.96,-9.9,139.52,4.42,9.32,3.1,987.77,64.476,42.393257,-83.29036,474.19,623.0061456,,19.37,44.041935,228,16 / 21,128016,2018-07-24 07:57:40:669
-2.3296,-0.5459,9.1123,-1.6978,-0.4887,9.6462,-0.6318,-0.0571,-0.5339,-0.017,0.0767,-0.0064,0,-5.04,-6.96,-9.6,138.28,2.97,9.92,3.1,987.8,65.953,42.393257,-83.29036,474.19,623.0061456,,19.37,44.041935,228,16 / 21,128515,2018-07-24 07:57:41:168
-2.0614,-0.2646,9.7827,-1.8081,-0.4586,9.6276,-0.2533,0.194,0.1551,0.0021,-0.0479,-0.0032,0,-4.92,-6.9,-9.42,138.01,2.7,11.02,3.1,987.81,65.865,42.393257,-83.29036,474.19,623.0061456,,19.37,44.041935,228,16 / 21,129015,2018-07-24 07:57:41:668
-1.1827,-0.079,9.092,-1.7352,-0.4224,9.6427,0.2137,0.3625,0.2514,0.0266,0.0245,-0.0128,0,-4.86,-6.96,-9.36,138.38,2.54,10.29,3.1,987.78,67.172,42.393257,-83.29036,474.19,623.0061456,,19.37,44.041935,228,16 / 21,129516,2018-07-24 07:57:42:169
-2.0506,-0.4166,9.4092,-1.7399,-0.3569,9.6445,-0.379,0.0013,0.4818,-0.0064,0.0021,-0.0032,0,-4.56,-7.02,-9,138.23,2.12,10.17,3.1,987.76,67.396,42.393257,-83.29036,474.19,623.0061456,,19.37,44.041935,228,16 / 21,130016,2018-07-24 07:57:42:669
-1.7885,-0.4118,8.3426,-1.7985,-0.2988,9.6357,-0.464,0.3694,0.4044,-0.0138,-0.0575,0.0245,0,-4.14,-7.32,-8.64,142.28,1.82,10.76,3.1,987.68,66.291,42.393257,-83.29036,474.19,623.0061456,,19.37,44.041935,228,16 / 21,130516,2018-07-24 07:57:43:169
-1.1756,-1.166,9.7719,-1.509,-0.5173,9.676,-0.5763,-1.0006,-0.4943,-0.0011,0.0991,-0.0075,0,-4.32,-6.48,-8.88,140.02,2.78,9.02,3.1,987.73,67.931,42.393257,-83.29036,474.19,623.0061456,,19.37,44.041935,228,16 / 21,131016,2018-07-24 07:57:43:669
-1.306,-1.0989,10.5441,-1.7086,-0.8881,9.6157,0.4026,-0.2108,0.9283,-0.0064,0.0117,0.0021,0,-5.28,-6.24,-9.3,136.08,5.12,9.71,3.1,987.8,67.776,42.393257,-83.29036,474.19,623.0061456,,19.37,44.041935,228,16 / 21,131516,2018-07-24 07:57:44:169
-1.6005,-2.0806,9.7815,-1.6018,-1.3716,9.5772,-0.0957,-0.5067,-0.4829,0.0075,-0.0533,0,0,-5.34,-6.96,-9.54,140.8,7.56,9.78,3.1,987.76,67.236,42.393257,-83.29036,474.19,623.0061456,,19.37,44.041935,228,16 / 21,132016,2018-07-24 07:57:44:669
-1.3791,-2.66,9.25,-1.5348,-1.9634,9.4847,-0.0369,-0.7648,-0.4921,-0.0043,-0.0373,-0.0128,0,-5.04,-7.5,-10.62,142.88,11.38,9.2,3.1,987.76,66.115,42.393257,-83.29036,474.19,623.0061456,,19.37,44.041935,228,16 / 21,132516,2018-07-24 07:57:45:169
-1.1049,-2.9604,9.1387,-1.5289,-2.2754,9.4157,0.424,-0.685,-0.277,0.0352,-0.0085,-0.0277,0,-4.62,-7.56,-10.74,146.28,13.09,9.34,3.1,987.76,67.78,42.393257,-83.29036,474.19,623.0061456,,19.37,44.041935,228,16 / 21,133016,2018-07-24 07:57:45:669
-1.4329,-3.1232,9.068,-1.4579,-2.4126,9.3928,0.1422,-0.4927,0.0631,0.0064,-0.0437,-0.0383,0,-4.5,-7.32,-10.68,148.79,14.19,8.79,3.1,987.84,67.315,42.393257,-83.29036,474.19,623.0061456,,19.37,44.041935,228,16 / 21,133516,2018-07-24 07:57:46:169
-2.3331,-3.4465,9.9778,-1.6617,-2.6076,9.3064,0.7626,-0.5467,-0.3808,0.0117,0.0181,-0.0202,0,-4.5,-7.02,-10.32,148.02,15.36,10.3,3.1,987.82,66.511,42.393257,-83.29036,474.19,623.0061456,,19.37,44.041935,228,16 / 21,134016,2018-07-24 07:57:46:669
-1.5826,-2.9892,8.6969,-1.6773,-2.7374,9.2663,0.0971,-0.5798,-0.118,0.0032,-0.0479,-0.0053,0,-3.72,-7.08,-10.08,148.29,16.16,10.3,3.1,987.79,66.254,42.393257,-83.29036,474.19,623.0061456,,19.37,44.041935,228,16 / 21,134516,2018-07-24 07:57:47:169
-1.6436,-3.2944,9.2919,-1.7257,-2.8244,9.2312,0.1479,-0.5286,0.2427,-0.0075,-0.0043,-0.0149,0,-3.66,-7.14,-10.08,148.35,16.65,10.42,3.1,987.81,64.573,42.393257,-83.29036,474.19,623.0061456,,19.37,44.041935,228,16 / 21,135016,2018-07-24 07:57:47:669
-1.3264,-4.2114,9.1063,-1.7264,-3.0951,9.1439,0.0983,-0.6961,-0.0315,0.016,0.0096,-0.0213,0,-3.78,-7.08,-10.08,148.51,18.01,10.76,3.1,987.83,64.589,42.393257,-83.29036,474.19,623.0061456,,19.37,44.041935,228,16 / 21,135516,2018-07-24 07:57:48:169
-1.9848,-4.0163,9.1877,-1.761,-3.304,9.0638,0.0587,-0.6631,0.0916,0.0043,0.017,-0.017,0,-3.78,-6.96,-10.02,148.92,19.54,10.81,3.1,987.8,63.394,42.393257,-83.29036,474.19,623.0061456,,19.37,44.041935,228,16 / 21,136016,2018-07-24 07:57:48:669
-1.828,-3.2178,9.0752,-1.7681,-3.3935,9.0293,-0.0707,0.3852,0.3117,0.0107,0.0096,-0.0053,0,-3.9,-6.36,-9.9,146.27,20.27,11.1,3.1,987.8,62.231,42.393257,-83.29036,474.19,623.0061456,,19.37,44.041935,228,16 / 21,136516,2018-07-24 07:57:49:169
-1.5586,-1.2426,9.1004,-1.802,-2.4914,9.3121,0.1213,1.1339,0.1893,0,0.017,-0.0043,0,-4.08,-6.36,-9.72,144.52,15.3,10.96,3.1,987.81,61.628,42.393257,-83.29036,474.19,623.0061456,,19.37,44.041935,228,16 / 21,137016,2018-07-24 07:57:49:669
-1.8866,-0.3364,9.4212,-1.9193,-2.0405,9.398,0.138,1.1834,0.0579,0.0117,-0.016,-0.0085,0,-4.02,-5.7,-9.66,142.78,12.37,11.51,3.1,987.8,63.25,42.393257,-83.29036,474.19,623.0061456,,19.37,44.041935,228,16 / 21,137516,2018-07-24 07:57:50:169
-2.0997,0.8009,9.6139,-1.8897,-0.6208,9.6028,-0.0974,1.6575,0.4888,0.0138,0.0117,-0.0053,0,-4.02,-5.52,-9.6,138.87,4.7,11.21,3.1,987.79,65.701,42.393257,-83.29036,474.19,623.0061456,,19.37,44.041935,228,16 / 21,138016,2018-07-24 07:57:50:669
-1.7178,1.2989,10.1706,-1.8348,0.1468,9.6324,-0.2506,0.1321,-0.72,-0.016,0.0618,-0.0117,0,-4.2,-5.82,-9.24,136.62,-0.5,10.72,3.1,987.79,66.891,42.393257,-83.29036,474.19,623.0061456,,19.37,44.041935,228,16 / 21,138516,2018-07-24 07:57:51:169
-1.8064,0.3639,9.347,-1.8759,0.2165,9.6231,0.1401,-0.1674,0.0914,-0.0032,-0.0107,-0.0096,0,-4.26,-5.82,-9.18,135.91,-1.22,11,3.1,987.8,66.232,42.393257,-83.29036,474.19,623.0061456,,19.37,44.041935,228,16 / 21,139016,2018-07-24 07:57:51:669
-1.0427,0.9421,9.3398,-1.902,0.2983,9.6158,0.8593,0.6438,-0.276,0.0234,0.017,-0.0011,0,-3.72,-5.82,-9.24,135.59,-1.5,11.18,3.1,987.78,68.006,42.393257,-83.29036,474.19,623.0061456,,19.37,44.041935,228,15 / 22,139516,2018-07-24 07:57:52:169
-2.0662,0.0072,10.5273,-1.6586,0.3581,9.6587,-0.4076,-0.351,0.8686,0.0288,0.1161,-0.0256,0,-3.78,-5.76,-9.18,135.62,-2.08,10.54,3.1,987.74,68.595,42.393257,-83.29036,474.19,623.0061456,,19.37,44.041935,228,15 / 22,140016,2018-07-24 07:57:52:669
-1.1109,0.146,9.1111,-1.7439,0.3414,9.6443,0.5049,0.22,-0.3225,0.0064,0.0192,-0.0075,0,-3.78,-5.76,-9.24,135.68,-2.02,10.51,3.1,987.72,66.112,42.392532,-83.29153,516.13,623.0061456,,23.98,29.361288,233.1,15 / 22,140515,2018-07-24 07:57:53:168
-1.6831,0.6584,8.3785,-1.6966,0.4038,9.6503,-0.4342,0.3228,-0.1334,0.0341,-0.1033,-0.0138,0,-3.24,-5.76,-9,140.89,-2.3,10.59,3.1,987.71,66.98,42.392532,-83.29153,516.13,623.0061456,,23.98,29.361288,233.1,15 / 22,141016,2018-07-24 07:57:53:669
-3.1484,-0.8236,10.7595,-1.6467,0.1852,9.6656,0.3658,-0.8604,0.3589,-0.0053,-0.1161,-0.0288,0,-3.06,-5.7,-8.88,142.59,-1.58,9.27,3.1,987.7,69.602,42.392532,-83.29153,516.13,623.0061456,,23.98,29.361288,233.1,15 / 22,141516,2018-07-24 07:57:54:169
-1.895,0.4369,9.7456,-1.5722,-0.0127,9.6798,-0.0978,0.6364,0.4273,0.0202,-0.0075,-0.0032,0,-3.3,-5.64,-8.88,143.95,0.05,9.01,3.1,987.68,68.526,42.392532,-83.29153,516.13,623.0061456,,23.98,29.361288,233.1,15 / 22,142016,2018-07-24 07:57:54:669
-1.6221,0.0479,9.4068,-1.5351,-0.0393,9.6857,-0.6317,-0.333,-0.3818,0.0096,0.0149,-0.0011,0,-3.48,-4.68,-9.36,139.01,0.34,9.12,3.1,987.7,68.667,42.392532,-83.29153,516.13,623.0061456,,23.98,29.361288,233.1,15 / 22,142516,2018-07-24 07:57:55:169
-1.3587,-1.1169,8.91,-1.7464,-0.0691,9.6496,-0.8836,-0.9412,-0.5708,-0.0075,0.066,-0.016,0,-3.42,-4.8,-9.3,138.17,0.35,10.03,3.1,987.7,69.9,42.392532,-83.29153,516.13,623.0061456,,23.98,29.361288,233.1,15 / 22,143016,2018-07-24 07:57:55:669
-1.7538,0.0754,8.9208,-1.8708,-0.1805,9.6249,0.8473,0.123,0.0345,-0.0149,-0.0277,0.0021,0,-3.66,-4.8,-9.36,132.36,1.04,10.99,3.1,987.69,69.507,42.392532,-83.29153,516.13,623.0061456,,23.98,29.361288,233.1,15 / 22,143516,2018-07-24 07:57:56:169
-1.8136,-1.5347,8.6826,-1.8418,-0.3975,9.6239,1.5509,-0.6511,0.4269,0.0245,-0.1832,-0.0288,0,-3.6,-4.74,-9.42,133.25,1.93,10.71,3.1,987.69,68.914,42.392532,-83.29153,516.13,623.0061456,,23.98,29.361288,233.1,15 / 22,144017,2018-07-24 07:57:56:670
-1.3168,-1.2713,8.7759,-1.4986,-0.5859,9.6737,0.2812,-0.4963,-0.0598,0.0117,0.1843,-0.0863,0,-3.78,-4.74,-9.3,135.49,3.12,8.95,3.1,987.69,70.221,42.392532,-83.29153,516.13,623.0061456,,23.98,29.361288,233.1,15 / 22,144516,2018-07-24 07:57:57:169
-0.2394,-2.3894,9.2129,-1.384,-1.1288,9.6427,0.2252,-0.5987,-0.5686,0.0117,0.0426,-0.049,0,-3.9,-4.68,-9.24,137.97,6.22,8.53,3.1,987.69,69.084,42.392532,-83.29153,516.13,623.0061456,,23.98,29.361288,233.1,15 / 22,145016,2018-07-24 07:57:57:669
-1.2258,-3.0861,10.6398,-1.3824,-1.9727,9.5062,0.1565,-1.1135,1.1336,0.033,-0.0543,-0.0192,0,-2.76,-4.92,-9.66,147.11,11.15,7.98,3.1,987.69,68.456,42.392532,-83.29153,516.13,623.0061456,,23.98,29.361288,233.1,15 / 22,145515,2018-07-24 07:57:58:168
-2.3116,-2.4134,10.8948,-1.6036,-2.4877,9.3493,-0.708,0.0743,1.5455,0.0149,-0.0895,-0.0117,0,-2.82,-4.8,-9.66,147.09,14.18,9.58,3.1,987.69,69.584,42.392532,-83.29153,516.13,623.0061456,,23.98,29.361288,233.1,15 / 22,146016,2018-07-24 07:57:58:669
-2.2517,-3.0574,9.7803,-1.7617,-2.7046,9.2603,0.0725,-0.2104,0.4327,0.0138,0.0511,0.0181,0,-2.46,-4.26,-9.78,149.55,16,10.53,3.1,987.72,67.324,42.392532,-83.29153,516.13,623.0061456,,23.98,29.361288,233.1,15 / 22,146515,2018-07-24 07:57:59:168
-2.1907,-3.0885,8.6574,-1.7901,-2.8049,9.2249,-0.6424,-0.5027,-0.4525,0.0138,-0.0053,-0.0075,0,-1.98,-4.14,-9.78,148.77,16.5,11.44,3.1,987.72,68.287,42.392532,-83.29153,516.13,623.0061456,,23.98,29.361288,233.1,15 / 22,147015,2018-07-24 07:57:59:668
-1.5981,-3.0442,8.9364,-1.72,-2.8271,9.2314,-0.4563,0.0462,-0.4471,0.0256,0.0224,-0.0043,0,-2.16,-4.26,-9.78,149.83,16.77,10.64,3.1,987.74,70.697,42.392532,-83.29153,516.13,623.0061456,,23.98,29.361288,233.1,15 / 21,147515,2018-07-24 07:58:00:168
-2.0147,-2.5103,9.5158,-2.0269,-2.7259,9.1995,-0.0513,-0.1831,-0.0501,-0.0202,0.0352,-0.0075,0,-2.4,-4.14,-9.66,147.85,16.19,12.12,3.1,987.73,66.637,42.392532,-83.29153,516.13,623.0061456,,23.98,29.361288,233.1,15 / 21,148015,2018-07-24 07:58:00:668
-1.4952,-2.2829,9.5589,-2.1355,-2.6988,9.1829,0.195,0.5812,-0.4429,0.0192,0.0128,0.0053,0,-1.56,-3.96,-9.48,146.91,15.99,13.17,3.1,987.7,65.775,42.392532,-83.29153,516.13,623.0061456,,23.98,29.361288,233.1,15 / 21,148516,2018-07-24 07:58:01:169
-1.9896,-2.1332,9.7264,-2.1649,-2.6011,9.2042,0.2113,0.4715,0.0182,0.0043,0.0107,0.0011,0,-1.26,-4.02,-9.36,153.84,15.48,13.09,3.1,987.69,66.886,42.392532,-83.29153,516.13,623.0061456,,23.98,29.361288,233.1,15 / 21,149015,2018-07-24 07:58:01:668
-1.9932,-2.3655,9.0668,-2.051,-2.429,9.2771,0.4445,0.8536,0.9905,0.0213,-0.049,0.0096,0,-1.38,-4.5,-9.66,153.23,14.41,12.57,3.1,987.72,66.785,42.392532,-83.29153,516.13,623.0061456,,23.98,29.361288,233.1,15 / 21,149516,2018-07-24 07:58:02:169
-2.5726,-2.0099,8.5593,-1.9783,-2.2002,9.3496,-0.2315,0.4979,-0.0805,-0.0511,0.1641,0.0011,0,-1.8,-4.92,-9.66,150.16,13.11,11.87,3.1,987.69,64.083,42.392532,-83.29153,516.13,623.0061456,,23.98,29.361288,233.1,15 / 21,150016,2018-07-24 07:58:02:669
-2.0961,-1.731,9.5984,-1.9946,-2.0239,9.3859,-0.0596,0.439,0.2651,-0.0181,-0.0298,-0.0138,0,-2.16,-4.32,-9.42,145.87,12.11,12.1,3.1,987.71,67.163,42.392532,-83.29153,516.13,623.0061456,,23.98,29.361288,233.1,15 / 21,150516,2018-07-24 07:58:03:169
-2.3188,-1.0487,9.4786,-2.0405,-1.7928,9.423,-0.2783,0.7442,0.0557,-0.0064,0.0277,0.0043,0,-0.78,-4.2,-8.1,153.4,10.8,12.3,3.1,987.68,63.874,42.392532,-83.29153,516.13,623.0061456,,23.98,29.361288,233.1,15 / 21,151016,2018-07-24 07:58:03:669
-2.2972,-0.4106,9.6307,-2.0256,-1.3812,9.4952,-0.2717,0.9706,0.1354,-0.0096,0.0437,0.0298,0,-0.54,-1.68,-8.64,138.4,8.4,12.14,3.1,987.69,64.338,42.392532,-83.29153,516.13,623.0061456,,23.98,29.361288,233.1,15 / 21,151516,2018-07-24 07:58:04:169
-2.5402,0.1844,8.9818,-2.0257,-1.0363,9.539,0.6024,0.7681,-0.4003,-0.0021,-0.0256,0.0245,0,-3.48,-3,-8.46,129.48,6.28,11.85,3.1,987.61,65.387,42.392532,-83.29153,516.13,623.0061456,,23.98,29.361288,233.1,15 / 21,152016,2018-07-24 07:58:04:669
-1.7633,-0.4956,9.4954,-1.87,-0.9272,9.582,-0.1675,0.288,0.3037,-0.017,0.0256,0.0213,0,-3.42,-4.32,-8.76,135.67,5.44,10.96,3.1,987.65,65.381,42.392532,-83.29153,516.13,623.0061456,,23.98,29.361288,233.1,15 / 21,152516,2018-07-24 07:58:05:169
-1.7154,-0.9613,9.4595,-1.8532,-0.8935,9.5884,0.1378,-0.0678,-0.1289,0.016,-0.0202,-0.0075,0,-3.24,-4.08,-9.24,135.44,5.26,11.04,3.1,987.67,66.709,42.392532,-83.29153,516.13,623.0061456,,23.98,29.361288,233.1,15 / 21,153016,2018-07-24 07:58:05:669
-1.0834,-0.0263,9.4679,-1.7169,-0.828,9.6196,0.5198,0.464,-0.4558,0.0138,0.0011,-0.0032,0,-3.36,-3.78,-9.54,135.43,4.9,10.11,3.1,987.6,66.592,42.392532,-83.29153,516.13,623.0061456,,23.98,29.361288,233.1,15 / 21,153516,2018-07-24 07:58:06:169
-1.1744,-0.5794,8.9711,-1.656,-0.781,9.6342,0.0734,0.6481,-0.1616,0.0149,-0.0128,0.0032,0,-4.26,-3.54,-9.36,130.06,4.57,10.09,3.1,987.66,68.03,42.392532,-83.29153,516.13,623.0061456,,23.98,29.361288,233.1,15 / 21,154016,2018-07-24 07:58:06:669
-1.3084,-0.5578,10.2615,-1.5154,-0.6105,9.6696,0.5685,0.9014,-0.4974,-0.0075,-0.0245,-0.016,0,-4.2,-3.18,-9.48,123.27,3.75,9.18,3.1,987.6,69.417,42.392532,-83.29153,516.13,623.0061456,,23.98,29.361288,233.1,15 / 21,154516,2018-07-24 07:58:07:169
-0.9098,0.3508,9.8857,-1.4653,-0.4708,9.6851,1.2858,0.5378,-0.416,-0.0192,-0.0107,-0.0202,0,-3.6,-3.18,-9.6,122.64,2.94,8.44,3.1,987.6,67.864,42.392532,-83.29153,516.13,623.0061456,,23.98,29.361288,233.1,15 / 21,155016,2018-07-24 07:58:07:669
-0.1281,-0.0575,9.408,-1.0595,-0.3113,9.7443,0.9314,0.2539,-0.3363,0.0011,0.1012,-0.0724,0,-3.78,-3.18,-9.84,123.35,2.03,6.27,3.1,987.65,70.473,42.392532,-83.29153,516.13,623.0061456,,23.98,29.361288,233.1,21-Dec,155515,2018-07-24 07:58:08:168
-0.4812,-0.103,11.8764,-1.0823,-0.2926,9.7424,-0.0933,-0.1635,-0.126,0.0064,-0.1587,-0.0714,0,-3.84,-2.28,-9.84,114.07,1.81,6.72,3.1,987.64,71.563,42.392532,-83.29153,516.13,623.0061456,,23.98,29.361288,233.1,21-Dec,156016,2018-07-24 07:58:08:669
-1.1073,-0.2538,8.9076,-1.2194,-0.185,9.7288,0.1121,-0.0688,-0.8212,0.0053,0.2141,-0.0703,0,-3.66,-1.92,-9.6,112.78,1,6.8,3.1,987.6,70.623,42.392532,-83.29153,516.13,623.0061456,,23.98,29.361288,233.1,21-Dec,156515,2018-07-24 07:58:09:168
-1.2438,-0.9804,8.8849,-1.1952,-0.351,9.7272,0.3824,-0.73,-0.7106,-0.0309,0.1523,-0.0756,0,-2.82,-1.8,-9.6,118.91,1.95,7.06,3.1,987.63,69.259,42.392532,-83.29153,516.13,623.0061456,,23.98,29.361288,233.1,21-Dec,157016,2018-07-24 07:58:09:669
-1.0918,-1.8016,8.989,-1.2938,-0.6664,9.6981,0.1266,-0.8216,-0.5809,-0.0224,0.1193,-0.0703,0,-3,-0.84,-9,110.62,3.77,7.47,3.1,987.61,68.858,42.391865,-83.29318,529.03,628.1678018,,40,34.254837,247.1,21-Dec,157516,2018-07-24 07:58:10:169
-1.64,-1.4533,8.7293,-1.5692,-0.914,9.637,-0.0708,-0.5393,-0.9078,-0.0053,0.066,-0.0778,0,-3,-0.24,-8.7,99.53,5.03,9.15,3.1,987.63,70.009,42.391865,-83.29318,529.03,628.1678018,,40,34.254837,247.1,21-Dec,158016,2018-07-24 07:58:10:669
-0.9625,-1.6185,9.9623,-1.4374,-1.1752,9.6293,0.4749,-0.4433,0.333,-0.032,0.0341,-0.0629,0,-2.82,-0.06,-9,102.92,6.66,8.4,3.1,987.62,68.095,42.391865,-83.29318,529.03,628.1678018,,40,34.254837,247.1,21-Dec,158516,2018-07-24 07:58:11:169
-1.1193,-1.9201,9.2452,-1.2061,-1.4373,9.6255,0.4938,-0.5199,0.0962,-0.0043,0.0288,-0.0767,0,-2.64,1.02,-9.12,93.61,8.38,7.13,3.1,987.65,69.256,42.391865,-83.29318,529.03,628.1678018,,40,34.254837,247.1,21-Dec,159016,2018-07-24 07:58:11:669
-1.0714,-2.1715,9.0489,-1.1006,-1.5302,9.6238,0.0292,-0.6413,-0.5749,-0.0107,0.1076,-0.0575,0,-2.76,1.92,-9.06,80.87,8.95,6.13,3.1,987.67,69.175,42.391865,-83.29318,529.03,628.1678018,,40,34.254837,247.1,21-Dec,159516,2018-07-24 07:58:12:169
-1.1636,-1.828,10.3441,-1.4032,-1.6158,9.5703,0.2397,-0.2122,0.7739,0.0117,-0.0511,-0.0277,0,-2.7,2.46,-9.3,82.14,9.4,8.4,3.1,987.67,68.604,42.391865,-83.29318,529.03,628.1678018,,40,34.254837,247.1,21-Dec,160016,2018-07-24 07:58:12:669
-1.4293,-1.7107,10.0784,-1.3658,-1.7498,9.5521,-0.2012,0.2965,-1.0348,-0.0149,0.0565,-0.0117,0,-2.76,2.76,-9.42,71.39,10.35,8.07,3.1,987.65,68.178,42.391865,-83.29318,529.03,628.1678018,,40,34.254837,247.1,21-Dec,160515,2018-07-24 07:58:13:168
-0.7242,-1.4329,8.8358,-1.2225,-1.8204,9.5584,0.4982,0.3875,-0.7226,0.0202,-0.0671,-0.0096,0,-2.76,3.12,-9.78,74.56,10.7,7.42,3.1,987.7,65.81,42.391865,-83.29318,529.03,628.1678018,,40,34.254837,247.1,21-Dec,161016,2018-07-24 07:58:13:669
-1.822,-1.8507,9.754,-1.2659,-1.8556,9.5459,-0.5561,0.0049,0.208,0.0149,-0.032,-0.0149,0,-2.4,2.34,-10.02,87.58,10.9,7.7,3.1,987.7,69.422,42.391865,-83.29318,529.03,628.1678018,,40,34.254837,247.1,21-Dec,161516,2018-07-24 07:58:14:169
-1.9932,-1.895,9.6798,-1.4369,-1.8909,9.5147,-0.2103,0.2054,-0.412,0.0128,0.0149,-0.0085,0,-1.32,1.8,-10.02,88.04,11.12,8.53,3.1,987.72,67.561,42.391865,-83.29318,529.03,628.1678018,,40,34.254837,247.1,21-Dec,162016,2018-07-24 07:58:14:669
-1.9944,-2.6971,9.7121,-1.5302,-1.9753,9.483,-0.4641,-0.7218,0.2291,0.0415,-0.2088,0.0096,0,-1.86,2.34,-10.02,89.18,11.54,9.46,3.1,987.71,67.853,42.391865,-83.29318,529.03,628.1678018,,40,34.254837,247.1,21-Dec,162516,2018-07-24 07:58:15:169
-1.9201,-2.7438,9.4487,-1.5865,-2.1628,9.4327,-0.3337,-0.5809,0.016,0.0128,-0.0352,0.0096,0,-1.98,2.58,-10.26,76.68,12.54,9.53,3.1,987.73,66.338,42.391865,-83.29318,529.03,628.1678018,,40,34.254837,247.1,21-Dec,163016,2018-07-24 07:58:15:669
-1.4545,-3.2346,8.3941,-1.6394,-2.5794,9.3182,0.0664,-0.6456,0.5746,-0.0107,-0.0671,0.0128,0,-1.92,2.58,-9.9,83.31,15.03,9.78,3.1,987.74,66.282,42.391865,-83.29318,529.03,628.1678018,,40,34.254837,247.1,21-Dec,163516,2018-07-24 07:58:16:169
-1.6819,-3.9313,9.3218,-1.6932,-2.9072,9.2115,0.1777,-0.9822,-0.8426,-0.0117,0.0138,0.0021,0,-2.34,2.58,-10.2,88.71,17.07,10.23,3.1,987.75,65.496,42.391865,-83.29318,529.03,628.1678018,,40,34.254837,247.1,21-Dec,164016,2018-07-24 07:58:16:669
-1.8627,-4.6436,9.4763,-1.7354,-3.4418,9.0174,0.7214,-0.6092,0.8156,-0.032,-0.0149,0.0213,0,-3.12,2.46,-10.2,105.34,20.27,10.93,3.1,987.76,68.386,42.391865,-83.29318,529.03,628.1678018,,40,34.254837,247.1,20-Dec,164516,2018-07-24 07:58:17:169
-2.0387,-4.2497,9.0824,-1.8168,-3.776,8.8663,-0.2673,-0.5025,0.9332,-0.0064,-0.0362,0.0107,0,-2.88,2.46,-10.32,108.69,22.57,11.69,3.1,987.8,64.764,42.391865,-83.29318,529.03,628.1678018,,40,34.254837,247.1,20-Dec,165016,2018-07-24 07:58:17:669
-1.5658,-3.9624,9.3829,-1.7863,-3.8519,8.8398,0.2205,-0.1105,0.5431,-0.0085,-0.0895,0.0032,0,-2.16,2.4,-10.26,115.31,23.18,11.42,3.1,987.79,63.676,42.391865,-83.29318,529.03,628.1678018,,40,34.254837,247.1,20-Dec,165516,2018-07-24 07:58:18:169
-1.8268,-1.7382,9.4403,-1.6615,-3.5235,8.9997,-0.3712,1.8511,0.7112,0.0213,0.0149,0.0043,0,-2.16,2.82,-10.14,101.31,22.03,10.71,3.1,987.81,62.501,42.391865,-83.29318,529.03,628.1678018,,40,34.254837,247.1,20-Dec,166016,2018-07-24 07:58:18:669
-1.6712,-1.1085,9.6055,-1.699,-2.4204,9.3502,-0.3122,1.2401,0.3296,-0.0117,0.0362,0.0085,0,-2.28,2.82,-10.38,83.1,14.94,10.28,3.1,987.84,58.616,42.391865,-83.29318,529.03,628.1678018,,40,34.254837,247.1,20-Dec,166516,2018-07-24 07:58:19:169
-1.8878,-0.3184,9.7935,-1.8018,-1.5976,9.5064,-0.201,1.2492,-0.0409,0.0234,-0.0202,0.0064,0,-2.58,3.06,-10.2,74.22,9.92,10.7,3.1,987.81,60.152,42.391865,-83.29318,529.03,628.1678018,,40,34.254837,247.1,20-Dec,167016,2018-07-24 07:58:19:669
-1.3204,-0.1269,10.0161,-1.7747,-0.9863,9.5942,0.0724,0.681,-0.325,0.0075,0.0053,0.0075,0,-2.58,3,-10.02,67.29,6.13,10.4,3.1,987.83,62.084,42.391865,-83.29318,529.03,628.1678018,,40,34.254837,247.1,20-Dec,167516,2018-07-24 07:58:20:169
-1.9884,0.1185,9.5409,-1.7417,-0.6551,9.6285,-0.2467,0.7736,-0.0876,-0.016,0.0447,-0.0064,0,-2.52,3.18,-9.66,63.7,4.05,10.2,3.1,987.83,63.467,42.391865,-83.29318,529.03,628.1678018,,40,34.254837,247.1,20-Dec,168016,2018-07-24 07:58:20:669
-1.166,-0.0455,9.7097,-1.8349,-0.5047,9.6202,0.2847,0.543,-0.132,0.0373,0.0298,0.0021,0,-2.88,3.24,-9.36,61.06,2.99,10.83,3.1,987.82,65.717,42.391865,-83.29318,529.03,628.1678018,,40,34.254837,247.1,20-Dec,168516,2018-07-24 07:58:21:169
-1.6807,0.2119,9.2727,-1.9489,-0.3638,9.6042,0.146,0.0921,0.3461,0.0234,-0.0277,-0.0128,0,-2.76,3.54,-9.36,51.92,2.12,11.36,3.1,987.82,67.824,42.391865,-83.29318,529.03,628.1678018,,40,34.254837,247.1,20-Dec,169016,2018-07-24 07:58:21:669
-1.6759,-0.0359,9.5912,-1.8981,-0.2824,9.6171,-0.1262,-0.115,-0.2569,0.0117,0.0128,-0.016,0,-2.64,3.48,-9.54,60.66,1.63,11.09,3.1,987.8,63.856,42.391865,-83.29318,529.03,628.1678018,,40,34.254837,247.1,20-Dec,169516,2018-07-24 07:58:22:169
-2.3415,-0.1197,9.5457,-1.9034,-0.2612,9.6166,0.1269,0.6311,0.4642,0.0043,-0.0629,-0.0032,0,-1.98,3.48,-9.36,53.54,1.59,11.41,3.1,987.87,64.699,42.391865,-83.29318,529.03,628.1678018,,40,34.254837,247.1,20-Dec,170016,2018-07-24 07:58:22:669
-1.8675,-0.5279,9.1159,-1.8682,-0.2708,9.6233,0.0773,-0.0081,0.0673,0.0053,0.0053,0.0117,0,-1.5,3.54,-9.3,35.48,1.54,10.91,3.1,987.81,65.755,42.391865,-83.29318,529.03,628.1678018,,40,34.254837,247.1,20-Dec,170516,2018-07-24 07:58:23:169
-1.6795,-0.2849,10.1993,-1.913,-0.258,9.6148,0.2335,-0.0269,0.5845,0.0064,-0.0863,0.0053,0,-1.92,3.6,-9.36,44.51,1.55,11.18,3.1,987.85,65.914,42.391865,-83.29318,529.03,628.1678018,,40,34.254837,247.1,20-Dec,171016,2018-07-24 07:58:23:669
-1.7813,-0.7841,8.9591,-1.8756,-0.2673,9.6219,0.0943,-0.5168,-0.6628,-0.0053,0.0586,0.0053,0,-1.92,3.66,-9.66,45.5,1.44,10.73,3.1,987.85,69.357,42.391865,-83.29318,529.03,628.1678018,,40,34.254837,247.1,20-Dec,171516,2018-07-24 07:58:24:169
-1.7478,-1.1313,9.5433,-1.9504,-0.2791,9.6067,-0.1732,-0.6415,-0.2789,-0.0181,0.0714,0.0181,0,-1.98,3.3,-9.78,55.23,1.62,11.4,3.1,987.86,67.475,42.391865,-83.29318,529.03,628.1678018,,40,34.254837,247.1,20-Dec,172015,2018-07-24 07:58:24:668
-2.0889,-1.2139,8.9495,-2.4089,-0.5204,9.4919,0.32,-0.6934,-0.5424,-0.0032,0.082,0.0362,0,-2.22,2.82,-9.72,59.42,2.82,13.64,3.1,987.86,68.066,42.391865,-83.29318,529.03,628.1678018,,40,34.254837,247.1,16 / 20,172516,2018-07-24 07:58:25:169
-2.4289,-1.6688,9.7312,-2.4797,-0.7895,9.4551,0.4399,-0.8134,0.251,-0.0117,-0.0543,0.0309,0,-2.1,3.12,-9.48,60.47,4.31,14.52,3.1,987.92,66.424,42.391865,-83.29318,529.03,628.1678018,,40,34.254837,247.1,16 / 20,173016,2018-07-24 07:58:25:669
-2.2757,-1.5251,8.7939,-2.5311,-1.1712,9.4017,0.2555,-0.3539,-0.6078,-0.0298,-0.0383,0.0511,0,-1.86,2.94,-9.42,64.33,6.57,14.96,3.1,987.9,67.659,42.391644,-83.29488,467.74,628.1678018,,42.44,24.467743,259.6,16 / 20,173516,2018-07-24 07:58:26:169
-2.5786,-2.8563,9.2835,-2.551,-1.8049,9.2955,-0.0276,-1.0514,-0.0119,-0.0096,-0.0415,0.0607,0,-1.62,1.5,-9.48,82.7,10.02,15.23,3.1,987.95,68.512,42.391644,-83.29488,467.74,628.1678018,,42.44,24.467743,259.6,16 / 20,174016,2018-07-24 07:58:26:669
-2.2733,-3.3124,9.5062,-2.5876,-2.3886,9.1526,-0.0269,-0.5611,-0.4329,-0.0181,0.0362,0.0554,0,-1.38,1.08,-9.48,107.08,13.87,15.64,3.1,987.99,67.032,42.391644,-83.29488,467.74,628.1678018,,42.44,24.467743,259.6,16 / 20,174516,2018-07-24 07:58:27:169
-2.3571,-3.7661,8.5605,-2.6443,-2.8114,9.0152,0.2908,-1.0613,0.042,-0.0043,-0.0352,0.0639,0,-1.56,0.78,-9.6,108.6,16.41,16.33,3.1,987.97,69.896,42.391644,-83.29488,467.74,628.1678018,,42.44,24.467743,259.6,16 / 20,175016,2018-07-24 07:58:27:669
-3.14,-4.385,9.0776,-2.4901,-3.1614,8.9429,0.0444,-0.4323,0.246,-0.0575,-0.017,0.065,0,-1.38,0.6,-9.6,119.12,18.71,15.79,3.1,988.02,70.106,42.391644,-83.29488,467.74,628.1678018,,42.44,24.467743,259.6,16 / 20,175517,2018-07-24 07:58:28:170
-2.2625,-4.0079,10.6362,-2.6473,-3.393,8.8119,0.4698,-0.9716,-1.3527,-0.016,-0.1076,0.0447,0,-1.02,0.18,-9.24,129.02,20.19,16.73,3.1,988.01,71.348,42.391644,-83.29488,467.74,628.1678018,,42.44,24.467743,259.6,16 / 20,176016,2018-07-24 07:58:28:669
-1.9237,-4.1503,8.278,-2.3324,-3.4379,8.8832,0.4086,-0.7125,-0.6053,0.0202,0,0.0117,0,-1.02,-0.18,-8.82,131.68,20.58,15.2,3.1,988.03,70.273,42.391644,-83.29488,467.74,628.1678018,,42.44,24.467743,259.6,16 / 20,176516,2018-07-24 07:58:29:169
-2.4289,-3.9181,8.7029,-2.0307,-3.469,8.945,-0.3982,-0.4491,-0.2421,0.0586,-0.0362,0.0234,0,-0.72,-2.28,-10.2,148.55,20.75,12.9,3.1,988.05,68.757,42.391644,-83.29488,467.74,628.1678018,,42.44,24.467743,259.6,16 / 20,177016,2018-07-24 07:58:29:669
-0.2442,-3.1759,9.6271,-1.7362,-3.4628,9.0091,0.4398,-0.059,0.3354,0.0234,-0.0138,-0.0298,0,-3,-3.3,-10.32,141.03,20.83,11.4,3.1,988.07,65.553,42.391644,-83.29488,467.74,628.1678018,,42.44,24.467743,259.6,16 / 20,177516,2018-07-24 07:58:30:169
-1.2737,-2.3786,10.4064,-1.333,-3.1915,9.1765,0.0628,0.4394,0.9294,0.0352,0.033,-0.1481,0,-1.68,-2.88,-10.26,150.13,19.43,8.51,3.1,988.1,63.511,42.391644,-83.29488,467.74,628.1678018,,42.44,24.467743,259.6,16 / 20,178016,2018-07-24 07:58:30:669
-1.1696,-2.7043,9.0369,-1.1636,-2.9376,9.2837,-0.0527,0.7241,-0.2707,0.0138,0.0501,-0.1736,0,-1.62,-2.76,-11.46,151.03,17.49,7.17,3.1,988.07,60.118,42.391644,-83.29488,467.74,628.1678018,,42.44,24.467743,259.6,16 / 20,178516,2018-07-24 07:58:31:169
-1.6005,-2.3882,9.5229,-1.0796,-2.8358,9.3254,-0.5688,0.2752,0.1688,0.0053,-0.0032,-0.1193,0,-2.82,-1.44,-12.78,135.81,16.88,6.62,3.1,988.07,60.831,42.391644,-83.29488,467.74,628.1678018,,42.44,24.467743,259.6,16 / 20,179016,2018-07-24 07:58:31:669
-1.5287,-2.4193,9.3254,-1.1234,-2.7852,9.3355,-0.4053,0.3658,-0.0101,0.0138,-0.0021,-0.0863,0,-4.02,-1.14,-12.84,129.29,16.58,6.79,3.1,988.07,60.668,42.391644,-83.29488,467.74,628.1678018,,42.44,24.467743,259.6,16 / 20,179516,2018-07-24 07:58:32:169
-1.5251,-1.2546,9.3817,-1.2571,-2.5291,9.3911,-0.1244,0.9501,0.0612,0.0064,-0.017,-0.065,0,-4.14,-1.38,-12.48,125.57,15.25,7.5,3.1,988.05,61.088,42.391644,-83.29488,467.74,628.1678018,,42.44,24.467743,259.6,16 / 20,180016,2018-07-24 07:58:32:669
-1.1887,-0.9613,9.5205,-1.3113,-1.9592,9.5191,0.0735,1.0458,-0.056,0.0075,0.0021,-0.0959,0,-4.44,-0.12,-11.94,112.7,11.89,7.8,3.1,988.04,60.842,42.391644,-83.29488,467.74,628.1678018,,42.44,24.467743,259.6,17 / 20,180516,2018-07-24 07:58:33:169
-0.5064,0.6297,10.0676,-0.9242,-0.7184,9.7365,0.443,1.6425,0.3359,0.0352,0.0309,-0.2706,0,-4.5,2.7,-11.16,67.65,4.94,5.63,3.1,988.04,64.459,42.391644,-83.29488,467.74,628.1678018,,42.44,24.467743,259.6,17 / 20,181016,2018-07-24 07:58:33:669
0,-0.5363,9.4846,-0.7938,-0.3794,9.7671,0.9721,0.4895,-0.632,0.0586,0.082,-0.4346,0,-4.56,4.2,-10.68,58.87,2.38,4.75,3.1,988.03,64.015,42.391644,-83.29488,467.74,628.1678018,,42.44,24.467743,259.6,17 / 20,181516,2018-07-24 07:58:34:169
0.99,-0.2346,9.566,-0.85,-0.2374,9.7669,2.1034,-0.2402,-0.7252,0.0905,0.016,-0.5678,0,-4.62,8.76,-10.62,34.45,1.54,5.21,3.1,988.05,63.92,42.391644,-83.29488,467.74,628.1678018,,42.44,24.467743,259.6,17 / 20,182015,2018-07-24 07:58:34:668
1.9656,-0.1365,9.7372,-0.7727,0.0042,9.7762,2.7276,-0.1215,-0.8206,0.081,0.1065,-0.6711,0,-9.84,12.84,-11.76,39.9,-0.01,4.3,3.1,988.06,67.42,42.391644,-83.29488,467.74,628.1678018,,42.44,24.467743,259.6,17 / 20,182515,2018-07-24 07:58:35:168
2.4086,-0.3831,9.6211,-0.7871,0.0418,9.7749,2.9862,-0.4261,0.4399,0.0437,0.0437,-0.7041,0,-12.42,14.1,-13.68,42.98,-0.34,4.75,3.1,988.05,68.475,42.391644,-83.29488,467.74,628.1678018,,42.44,24.467743,259.6,17 / 20,183016,2018-07-24 07:58:35:669
0.0012,1.2629,9.894,-0.852,0.2587,9.7661,0.8532,1.0043,0.1279,0.0597,0.1076,-0.4133,0,-15.24,19.32,-12.24,39.64,-1.31,4.73,3.1,988.05,65.931,42.391644,-83.29488,467.74,628.1678018,,42.44,24.467743,259.6,17 / 20,183516,2018-07-24 07:58:36:169
-2.2769,0.8942,9.3865,-1.1503,0.4029,9.7306,-0.8608,0.5835,-0.0628,-0.0021,0,-0.0341,0,-19.74,20.46,-13.5,46.31,-2.27,6.6,3.1,987.99,66.186,42.391644,-83.29488,467.74,628.1678018,,42.44,24.467743,259.6,17 / 20,184016,2018-07-24 07:58:36:669
-1.8316,0.8763,8.3761,-1.4956,0.5513,9.6762,-0.1217,0.5393,-0.4394,-0.0107,0.098,0.0053,0,-21.9,19.32,-13.32,50.63,-3.19,8.97,3.1,988.01,68.215,42.391644,-83.29488,467.74,628.1678018,,42.44,24.467743,259.6,17 / 20,184516,2018-07-24 07:58:37:169
-1.5897,0.9002,9.4822,-1.6096,0.6103,9.6544,-0.2759,0.3545,-0.2739,0.0096,0.0309,0.0096,0,-20.82,19.2,-13.68,49.58,-3.59,9.52,3.1,988,68.44,42.391644,-83.29488,467.74,628.1678018,,42.44,24.467743,259.6,17 / 20,185016,2018-07-24 07:58:37:669
-1.7298,0.3974,7.9859,-1.6156,0.7362,9.6446,-0.5452,-0.2023,0.8612,0.0117,-0.0991,0.0043,0,-20.7,18.42,-11.52,50.88,-4.27,10.3,3.1,987.98,71.675,42.391644,-83.29488,467.74,628.1678018,,42.44,24.467743,259.6,17 / 20,185516,2018-07-24 07:58:38:169
-2.1129,0.5195,9.5984,-1.5997,0.7047,9.6496,-0.4916,-0.5312,-0.5504,0.0469,-0.0213,-0.0117,0,-21.18,19.32,-11.04,49.17,-4.1,9.61,3.1,988,71.023,42.391644,-83.29488,467.74,628.1678018,,42.44,24.467743,259.6,17 / 20,186016,2018-07-24 07:58:38:669
-2.1404,0.4705,10.0868,-1.8029,0.6166,9.6198,-0.8103,-0.0072,-0.4775,0.0373,0.0383,0.0288,0,-21.42,19.2,-12.3,49.62,-3.58,10.77,3.1,987.97,69.415,42.391644,-83.29488,467.74,628.1678018,,42.44,24.467743,259.6,17 / 20,186516,2018-07-24 07:58:39:169
-2.1811,-0.2514,9.408,-2.0863,0.4884,9.5697,0.0093,-0.9864,-1.9059,-0.016,-0.0043,0.0309,0,-21.6,18.96,-11.64,51.28,-3.03,12.85,3.1,987.94,69.458,42.391644,-83.29488,467.74,628.1678018,,42.44,24.467743,259.6,17 / 20,187016,2018-07-24 07:58:39:669
-1.7801,0.3615,8.8753,-1.5703,0.3833,9.6725,-0.278,-0.7484,0.8907,0.0202,0.2535,-0.0426,0,-22.26,20.22,-12.78,49.39,-2.37,8.98,3.1,987.94,70.76,42.391644,-83.29488,467.74,628.1678018,,42.44,24.467743,259.6,17 / 20,187516,2018-07-24 07:58:40:169
-2.1416,0.1664,10.3992,-1.6866,0.3048,9.6557,-0.394,0.3201,2.1764,0.098,-0.1236,-0.0043,0,-20.82,19.98,-13.26,48.66,-1.38,10.22,3.1,987.94,74.023,42.391644,-83.29488,467.74,628.1678018,,42.44,24.467743,259.6,17 / 20,188016,2018-07-24 07:58:40:669
-1.579,-0.0958,10.6446,-1.4932,0.3138,9.6872,-0.0858,0.2668,0.3337,0.0096,0,-0.0138,0,-17.34,26.46,-24.96,37.37,-1.92,8.27,3.1,987.9,73.556,42.391644,-83.29488,467.74,628.1678018,,42.44,24.467743,259.6,18 / 20,188516,2018-07-24 07:58:41:169
-1.3815,-0.0407,8.2061,-1.5252,0.1347,9.6864,0.2933,0.313,-0.8015,-0.0032,0.0501,-0.0181,0,-20.34,8.76,-24.66,68.31,-0.93,8.59,3.1,987.95,69.769,42.391644,-83.29488,467.74,628.1678018,,42.44,24.467743,259.6,18 / 20,189016,2018-07-24 07:58:41:669
-3.7709,-1.2881,9.2512,-1.7572,-0.0574,9.6478,2.3821,0.8188,3.8819,-0.0138,-0.4282,0.0277,0,-25.68,8.58,-5.46,71.22,0,8.9,3.1,987.92,69.174,42.392128,-83.29549,487.1,600.78208,,54.97,48.935486,357.9,18 / 20,189516,2018-07-24 07:58:42:169
-1.3431,-1.0104,8.6323,-1.364,-0.1009,9.7108,0.1968,-1.016,-1.6388,-0.0692,0.032,-0.0149,0,-22.5,23.76,-5.1,43.13,0.09,7.93,3.1,987.91,73.539,42.392128,-83.29549,487.1,600.78208,,54.97,48.935486,357.9,18 / 20,190015,2018-07-24 07:58:42:668
-1.1133,-0.4956,9.7169,-2.0557,-0.2302,9.586,0.9424,-0.2654,0.1309,-0.0245,-0.0021,-0.0128,0,-19.98,22.38,-12.36,45.02,0.94,10.7,3.1,988.05,72.41,42.392128,-83.29549,487.1,600.78208,,54.97,48.935486,357.9,18 / 20,190515,2018-07-24 07:58:43:168
-1.6819,-1.2761,9.8258,-1.8283,-0.334,9.6289,0.1464,-0.9421,0.1969,0.0256,0.0224,-0.0053,0,-23.04,19.2,-12.9,53.1,1.54,10.54,3.1,987.91,65.494,42.392128,-83.29549,487.1,600.78208,,54.97,48.935486,357.9,18 / 20,191016,2018-07-24 07:58:43:669
-1.7346,-1.3336,10.4998,-1.8701,-0.6683,9.6035,0.011,-0.4378,0.0859,0.0405,-0.0692,0.0064,0,-23.34,19.56,-12.6,52.27,3.74,11.28,3.1,987.92,65.496,42.392128,-83.29549,487.1,600.78208,,54.97,48.935486,357.9,18 / 20,191515,2018-07-24 07:58:44:168
-1.6089,-1.3707,10.4698,-1.9207,-0.9053,9.574,0.2854,-0.2116,0.1847,0.0117,0.1108,0.0128,0,-22.62,19.32,-12.54,53.99,5.12,10.51,3.1,987.95,71.31,42.392128,-83.29549,487.1,600.78208,,54.97,48.935486,357.9,18 / 20,192016,2018-07-24 07:58:44:669
-1.8435,-0.8918,8.9064,-1.9968,-1.0363,9.5451,0.3029,-0.1704,0.6697,-0.0202,-0.0107,0.0043,0,-21.96,18.96,-12.72,53.26,6.02,11.42,3.1,987.94,69.433,42.392128,-83.29549,487.1,600.78208,,54.97,48.935486,357.9,18 / 20,192515,2018-07-24 07:58:45:168
-1.7023,-2.15,8.3797,-1.8312,-1.4366,9.5265,-1.055,-0.4429,-0.8499,0.0575,-0.3973,0.0085,0,-21.36,19.02,-12.96,52.99,8.64,12.13,3.1,987.9,72.592,42.392128,-83.29549,487.1,600.78208,,54.97,48.935486,357.9,18 / 20,193016,2018-07-24 07:58:45:669
-1.992,-1.2821,8.8442,-1.7944,-1.426,9.535,-0.1975,0.1439,-0.6909,-0.0298,0.1726,-0.0053,0,-20.88,19.26,-12.72,52.69,8.25,10.08,3.1,987.92,69.261,42.392128,-83.29549,487.1,600.78208,,54.97,48.935486,357.9,18 / 20,193516,2018-07-24 07:58:46:169
-1.0343,-1.4066,10.981,-1.7829,-1.4343,9.536,0.0806,-0.0896,-0.4978,0.0479,-0.2376,0.0149,0,-20.88,19.38,-12.6,52.86,8.59,10.78,3.1,987.97,67.613,42.392128,-83.29549,487.1,600.78208,,54.97,48.935486,357.9,18 / 20,194016,2018-07-24 07:58:46:669
-1.7142,-1.482,9.1961,-1.8568,-1.4874,9.5137,0.1641,0.2304,-0.891,-0.0149,0.0852,-0.0032,0,-20.94,21.24,-15.48,50.8,8.63,11.04,3.1,987.94,69.122,42.392128,-83.29549,487.1,600.78208,,54.97,48.935486,357.9,18 / 20,194515,2018-07-24 07:58:47:168
-1.9776,-1.6568,7.7907,-2.0056,-1.4627,9.4873,0.9438,0.013,0.6186,0.0128,-0.2035,0.0053,0,-21.54,13.2,-13.32,64.3,8.49,11.78,3.1,987.95,66.994,42.392128,-83.29549,487.1,600.78208,,54.97,48.935486,357.9,18 / 20,195016,2018-07-24 07:58:47:669
-1.5718,-0.6416,11.6897,-2.0008,-1.4845,9.4849,0.2399,-0.0932,-0.2493,-0.1087,0.4144,-0.0043,0,-21.3,18.84,-11.04,51.96,8.49,11.52,3.1,987.97,68.795,42.392128,-83.29549,487.1,600.78208,,54.97,48.935486,357.9,18 / 20,195516,2018-07-24 07:58:48:169
-1.9632,-1.798,8.8681,-2.1663,-1.5942,9.4306,-0.1429,-0.0937,0.5556,0.016,-0.0256,-0.0032,0,-20.64,19.5,-11.22,50.72,9.35,13.04,3.1,987.95,70.251,42.392128,-83.29549,487.1,600.78208,,54.97,48.935486,357.9,18 / 20,196016,2018-07-24 07:58:48:669
-1.1217,-1.5431,6.5781,-2.0363,-1.4902,9.4765,0.9146,-0.0529,-2.8984,-0.066,0.1854,0,0,-20.7,19.5,-12.66,51.59,8.99,12.37,3.1,988,67.854,42.392128,-83.29549,487.1,600.78208,,54.97,48.935486,357.9,14 / 20,196515,2018-07-24 07:58:49:168
-1.7633,-1.822,8.7293,-2.0336,-1.5635,9.4652,-0.1044,0.0695,0.3905,0.0533,0.1033,-0.0256,0,-20.82,19.32,-12.54,53.13,9.07,12.24,3.1,987.98,73.259,42.392128,-83.29549,487.1,600.78208,,54.97,48.935486,357.9,14 / 20,197016,2018-07-24 07:58:49:669
-0.9756,-1.391,9.2943,-2.0216,-1.5433,9.4711,0.1242,-0.3063,-0.5084,-0.0266,-0.0724,-0.0096,0,-21.06,19.26,-12.48,52.62,9.05,12.05,3.1,988,66.569,42.392128,-83.29549,487.1,600.78208,,54.97,48.935486,357.9,14 / 20,197517,2018-07-24 07:58:50:170
-3.2681,-1.8124,9.0956,-1.798,-1.5936,9.5078,0.2573,-0.2271,-0.0244,0.0618,-0.2653,0.0213,0,-20.94,19.26,-12.6,53.19,9.58,10.93,3.1,988.01,70.451,42.392128,-83.29549,487.1,600.78208,,54.97,48.935486,357.9,14 / 20,198017,2018-07-24 07:58:50:670
-1.3228,-1.7406,9.9024,-1.7346,-1.6197,9.5152,0.1568,-0.5387,-0.3609,0.0415,-0.0405,-0.0043,0,-20.58,19.14,-12.6,53.14,9.42,10.9,3.1,988.03,68.851,42.392128,-83.29549,487.1,600.78208,,54.97,48.935486,357.9,14 / 20,198516,2018-07-24 07:58:51:169
-1.7107,-2.1165,8.5389,-1.8066,-1.7467,9.4792,0.096,-0.3698,-0.9403,-0.0202,0.0213,-0.0128,0,-20.7,19.14,-12.18,52.82,10.02,10.63,3.1,988,68.309,42.392128,-83.29549,487.1,600.78208,,54.97,48.935486,357.9,14 / 20,199015,2018-07-24 07:58:51:668
-1.3587,-0.6117,9.1566,-1.7691,-1.7553,9.4847,0.4104,1.1436,-0.3281,-0.0234,0.0437,0.0117,0,-20.7,19.26,-12.36,52.92,10.34,10.61,3.1,988.02,68.977,42.392128,-83.29549,487.1,600.78208,,54.97,48.935486,357.9,14 / 20,199516,2018-07-24 07:58:52:169
-3.7505,-1.2665,13.2854,-1.9587,-1.6871,9.4598,-1.2327,-1.9449,-0.515,0.0671,0.13,0.0053,0,-20.28,19.08,-12.48,51.72,10.03,11.57,3.1,988.02,67.879,42.392128,-83.29549,487.1,600.78208,,54.97,48.935486,357.9,14 / 20,200016,2018-07-24 07:58:52:669
-2.6025,-1.7083,9.7025,-2.017,-1.5857,9.4651,-0.5364,-0.1788,1.0598,0.0298,-0.1055,0.016,0,-19.98,18.9,-13.14,52.14,9.51,12.31,3.1,988.04,74.373,42.392128,-83.29549,487.1,600.78208,,54.97,48.935486,357.9,14 / 20,200516,2018-07-24 07:58:53:169
-1.8699,-1.5359,9.0405,-1.9234,-1.663,9.4713,0.1577,0.2229,0.3617,0.0149,0.0671,0.0138,0,-20.4,18.6,-13.32,52.13,9.74,11.35,3.1,987.99,66.514,42.392128,-83.29549,487.1,600.78208,,54.97,48.935486,357.9,14 / 20,201016,2018-07-24 07:58:53:669
-1.7909,-1.6257,8.9818,-2.0377,-1.6325,9.4527,0.3773,-0.302,-0.0267,0.0138,0.0096,0.0032,0,-22.38,18.18,-12.6,55.89,9.49,12.08,3.1,988.06,66.737,42.392128,-83.29549,487.1,600.78208,,54.97,48.935486,357.9,14 / 20,201516,2018-07-24 07:58:54:169
-3.8607,-2.4481,8.5796,-2.1436,-1.6849,9.42,-1.717,-0.7632,-0.8404,-0.0256,-0.0916,-0.0043,0,-22.68,18,-11.76,56.54,9.99,13.17,3.1,988.04,69.012,42.392128,-83.29549,487.1,600.78208,,54.97,48.935486,357.9,14 / 20,202015,2018-07-24 07:58:54:668
-1.7801,-1.7921,10.4447,-2.1393,-1.6498,9.4272,0.3592,-0.1422,1.0175,0.0202,-0.131,0.0117,0,-23.1,18.9,-11.88,54.98,9.9,13.14,3.1,987.98,70.357,42.392128,-83.29549,487.1,600.78208,,54.97,48.935486,357.9,14 / 20,202516,2018-07-24 07:58:55:169
-0.9014,-1.5502,7.5657,-2.0725,-1.6067,9.4495,-0.2235,-1.3262,-2.6919,-0.0991,0.3856,-0.0011,0,-20.34,20.28,-14.28,51.13,9.56,12.32,3.1,987.99,69.31,42.392128,-83.29549,487.1,600.78208,,54.97,48.935486,357.9,14 / 20,203016,2018-07-24 07:58:55:669
-1.9944,-1.9285,8.819,-2.3652,-1.6163,9.3789,0.3708,-0.3122,-0.5599,0.0011,-0.0192,0,0,-18.66,18.06,-15.42,53.88,9.45,14.32,3.1,987.96,69.015,42.392128,-83.29549,487.1,600.78208,,54.97,48.935486,357.9,14 / 20,203516,2018-07-24 07:58:56:169
-2.6001,-2.3894,9.3877,-2.3074,-1.6364,9.3898,-0.0209,-0.3006,0.5126,0.0107,-0.033,-0.0011,0,-20.04,17.1,-14.46,56.12,9.66,13.71,3.1,987.95,68.241,42.392128,-83.29549,487.1,600.78208,,54.97,48.935486,357.9,14 / 20,204015,2018-07-24 07:58:56:668
-0.3388,-1.4928,9.584,-2.184,-1.7501,9.3988,0.2364,-2.022,-1.4848,-0.0703,0.0117,0.0011,0,-19.98,17.22,-12.6,55.7,10.15,13.17,3.1,987.96,66.009,42.392128,-83.29549,487.1,600.78208,,54.97,48.935486,357.9,14 / 20,204515,2018-07-24 07:58:57:168
-1.2845,-1.2163,10.3585,-2.0899,-1.7604,9.4183,0.8054,0.5442,0.9403,0.033,-0.1502,0.0032,0,-20.22,17.7,-11.82,53.42,10.11,12.75,3.1,987.92,71.195,42.392128,-83.29549,487.1,600.78208,,54.97,48.935486,357.9,14 / 20,205016,2018-07-24 07:58:57:669
-1.8064,-1.3575,9.3601,-1.795,-1.804,9.4707,-0.4507,-0.3017,-1.2646,-0.0032,-0.0117,-0.0192,0,-21.42,17.94,-11.64,54.55,10.39,10.82,3.1,987.91,68.24,42.392128,-83.29549,487.1,600.78208,,54.97,48.935486,357.9,13 / 20,205516,2018-07-24 07:58:58:169
-2.5355,-2.0818,9.0908,-1.6948,-1.8505,9.4802,-0.3355,-0.2229,0.2894,-0.0075,-0.0874,0.0021,0,-20.64,18.3,-11.76,54.68,10.88,10.14,3.1,987.89,67.432,42.392128,-83.29549,487.1,600.78208,,54.97,48.935486,357.9,13 / 20,206016,2018-07-24 07:58:58:669
-2.1727,-2.2661,9.0154,-1.7207,-1.9996,9.4452,-0.6987,-0.9225,-0.5998,-0.0117,0.0096,0.0043,0,-20.58,18.12,-13.2,55.5,11.68,10.17,3.1,987.91,63.447,42.394825,-83.29555,487.1,600.78208,,53.93,48.935486,358.2,13 / 20,206516,2018-07-24 07:58:59:169
-1.6975,-3.0335,9.2332,-1.9041,-2.2425,9.355,-0.1478,-0.8185,1.4285,-0.0053,-0.1321,0.0117,0,-20.58,18.18,-13.26,55.98,12.85,12.16,3.1,987.89,67.594,42.394825,-83.29555,487.1,600.78208,,53.93,48.935486,358.2,13 / 20,207016,2018-07-24 07:58:59:669
-2.5462,-2.32,8.4851,-2.0786,-2.3685,9.2866,0.5738,0.1371,0.3513,0.0053,-0.1055,0.0181,0,-18.36,17.16,-15.9,57.02,14.02,12.58,3.1,987.93,66.95,42.394825,-83.29555,487.1,600.78208,,53.93,48.935486,358.2,13 / 20,207515,2018-07-24 07:59:00:168
-2.2984,-2.8096,9.0752,-2.0074,-2.425,9.2876,-0.291,-0.3846,-0.2124,0.017,0.0085,-0.0032,0,-18.3,16.5,-14.16,55.64,14.23,12.13,3.1,987.93,65.056,42.394825,-83.29555,487.1,600.78208,,53.93,48.935486,358.2,13 / 20,208016,2018-07-24 07:59:00:669
-1.919,-2.7126,9.329,-2.061,-2.475,9.2627,-0.0375,-0.3202,-0.4017,-0.0085,0.0469,-0.0085,0,-18.48,17.1,-12.54,55.03,14.5,12.36,3.1,987.87,64.457,42.394825,-83.29555,487.1,600.78208,,53.93,48.935486,358.2,13 / 20,208515,2018-07-24 07:59:01:168
-2.1703,-2.9449,9.2308,-2.1785,-2.5287,9.2212,-0.3258,0.2387,-0.2214,0.017,-0.016,-0.0064,0,-19.14,16.98,-13.14,56.35,14.9,13.41,3.1,987.88,66.485,42.394825,-83.29555,487.1,600.78208,,53.93,48.935486,358.2,13 / 20,209017,2018-07-24 07:59:01:670
-1.7502,-2.5259,9.1099,-2.0237,-2.6151,9.2323,-0.1646,0.015,-1.1435,0.0085,0.0415,-0.0032,0,-19.98,16.08,-12.96,59.4,15.37,12.52,3.1,987.87,65.493,42.394825,-83.29555,487.1,600.78208,,53.93,48.935486,358.2,13 / 20,209516,2018-07-24 07:59:02:169
-2.2374,-2.7246,9.244,-2.0883,-2.6397,9.2109,0.0724,-0.1543,-0.7247,-0.0181,0.033,0.0021,0,-19.8,16.92,-12.78,57.7,15.61,12.62,3.1,987.86,66.399,42.394825,-83.29555,487.1,600.78208,,53.93,48.935486,358.2,13 / 20,210016,2018-07-24 07:59:02:669
-1.7777,-2.5007,8.7807,-2.0462,-2.6161,9.2271,-0.093,-0.1851,0.0744,-0.0128,-0.0085,-0.0011,0,-19.38,18.66,-13.8,53.86,15.46,12.6,3.1,987.86,65.506,42.394825,-83.29555,487.1,600.78208,,53.93,48.935486,358.2,13 / 20,210516,2018-07-24 07:59:03:169
-1.5407,-2.6456,9.3278,-2.0011,-2.6369,9.2311,0.4604,-0.0087,0.0967,-0.0107,-0.1332,0.017,0,-19.44,17.76,-13.92,55.69,15.78,12.26,3.1,987.87,65.43,42.394825,-83.29555,487.1,600.78208,,53.93,48.935486,358.2,13 / 20,211015,2018-07-24 07:59:03:668
-1.8938,-2.6564,8.9004,-1.9195,-2.6071,9.2568,-0.2197,0.1602,-0.4677,-0.0234,-0.0149,-0.0053,0,-19.86,17.52,-13.5,55.89,15.39,11.8,3.1,987.87,64.256,42.394825,-83.29555,487.1,600.78208,,53.93,48.935486,358.2,13 / 20,211516,2018-07-24 07:59:04:169
-2.071,-2.6444,9.1686,-1.9665,-2.6244,9.2421,-0.0866,0.1644,-0.1872,0.0138,0.017,0.0021,0,-19.38,17.64,-13.8,55.57,15.54,11.84,3.1,987.87,64.594,42.394825,-83.29555,487.1,600.78208,,53.93,48.935486,358.2,13 / 20,212016,2018-07-24 07:59:04:669
-2.0734,-2.794,9.6702,-2.0178,-2.6018,9.2374,-0.0555,-0.1922,0.4328,0.0064,-0.0256,0.0021,0,-19.5,17.58,-13.68,55.51,15.38,12.29,3.1,987.85,60.06,42.394825,-83.29555,487.1,600.78208,,53.93,48.935486,358.2,13 / 20,212516,2018-07-24 07:59:05:169
-2.0063,-2.241,9.4068,-1.9911,-2.5593,9.2551,-0.0452,0.0394,0.0488,-0.0021,0.0149,0.0064,0,-19.32,18.12,-11.7,53.98,15.2,12,3.1,987.86,68.032,42.394825,-83.29555,487.1,600.78208,,53.93,48.935486,358.2,13 / 20,213016,2018-07-24 07:59:05:669
-2.0698,-2.7653,9.0525,-1.9115,-2.5618,9.2711,-0.1583,-0.2035,-0.2187,-0.0032,0.0053,-0.0011,0,-18.18,18.36,-13.26,53.48,15.13,11.69,3.1,987.85,64.954,42.394825,-83.29555,487.1,600.78208,,53.93,48.935486,358.2,13 / 20,213516,2018-07-24 07:59:06:169
-2.0279,-2.648,9.3386,-1.9161,-2.5448,9.2749,-0.1956,-0.0218,0.0865,-0.0117,0.0341,-0.0064,0,-18.18,16.8,-13.86,56.01,15.08,11.71,3.1,987.85,68.13,42.394825,-83.29555,487.1,600.78208,,53.93,48.935486,358.2,13 / 20,214016,2018-07-24 07:59:06:669
-2.0518,-1.9321,9.323,-1.953,-2.528,9.2718,0.1526,0.8437,-0.0505,-0.0011,-0.0138,0.0011,0,-18.6,16.86,-13.38,56.39,15.01,11.89,3.1,987.87,65.585,42.394825,-83.29555,487.1,600.78208,,53.93,48.935486,358.2,16 / 20,214516,2018-07-24 07:59:07:169
-1.8854,-1.4557,9.5517,-1.9617,-2.1069,9.3746,0.2427,0.7075,0.1376,0.0021,-0.016,0.0021,0,-20.58,17.22,-13.14,57.59,12.66,11.81,3.1,987.86,63.099,42.394825,-83.29555,487.1,600.78208,,53.93,48.935486,358.2,16 / 20,215015,2018-07-24 07:59:07:668
-1.9094,-1.2641,9.4643,-1.9436,-1.8503,9.4324,0.1395,0.5909,-0.1333,0.0011,0.0064,0.0011,0,-21.18,17.94,-12.3,54.77,10.99,11.65,3.1,987.85,65.109,42.395535,-83.295586,500,623.744355,,13.5,29.361288,359,16 / 20,215515,2018-07-24 07:59:08:168
-2.0794,-0.9038,9.6223,-1.9669,-1.6145,9.4708,-0.1125,0.7107,0.1515,-0.0128,0.0554,-0.0011,0,-21.54,18.18,-11.94,55.43,9.65,11.72,3.1,987.86,65.979,42.395535,-83.295586,500,623.744355,,13.5,29.361288,359,16 / 20,216016,2018-07-24 07:59:08:669
-2.1117,-0.5183,9.3494,-1.9744,-1.25,9.5242,-0.1373,0.7316,-0.1748,-0.0053,-0.0053,0,0,-21.3,17.94,-11.82,53.79,7.67,11.7,3.1,987.91,65.611,42.395535,-83.295586,500,623.744355,,13.5,29.361288,359,16 / 20,216516,2018-07-24 07:59:09:169
-1.5933,-0.0491,9.4978,-1.9986,-1.0441,9.5439,0.0413,0.9878,-0.1263,0.0043,-0.0043,0.0075,0,-19.44,18,-11.94,51.05,6.38,11.8,3.1,987.82,66.801,42.395535,-83.295586,500,623.744355,,13.5,29.361288,359,16 / 20,217016,2018-07-24 07:59:09:669
-1.7418,-0.2346,9.5409,-1.9731,-0.7122,9.5797,-0.1338,0.3782,-0.2435,-0.0021,0.0362,-0.0053,0,-18.78,18.3,-12.6,50.85,4.25,11.67,3.1,987.85,66.535,42.395535,-83.295586,500,623.744355,,13.5,29.361288,359,16 / 20,217516,2018-07-24 07:59:10:169
-2.1177,0.182,9.5217,-1.9127,-0.3848,9.6106,-0.2049,0.5668,-0.0889,-0.016,0.0426,0.0032,0,-18.84,17.88,-13.02,50.3,2.53,11.29,3.1,987.84,65.17,42.395535,-83.295586,500,623.744355,,13.5,29.361288,359,16 / 20,218017,2018-07-24 07:59:10:670
-1.7561,0.5471,10.2376,-1.9043,-0.1831,9.6182,0.372,0.4513,-0.154,0.0224,-0.098,0.0043,0,-18.12,18.42,-12.12,48.3,1.13,11.4,3.1,987.85,65.353,42.395535,-83.295586,500,623.744355,,13.5,29.361288,359,16 / 20,218516,2018-07-24 07:59:11:169
-2.0542,0.7207,10.1778,-1.9049,-0.0555,9.6197,-0.1493,0.7761,0.5581,0.0256,-0.0011,0.0064,0,-17.76,18.66,-13.2,46.83,0.41,11.2,3.1,987.81,65.547,42.395535,-83.295586,500,623.744355,,13.5,29.361288,359,16 / 20,219016,2018-07-24 07:59:11:669
-2.6576,-0.0371,9.645,-1.8209,0.0024,9.6361,-0.4572,-0.3269,-1.327,-0.0043,0.0085,-0.0053,0,-18.24,18.12,-12.72,48.07,-0.03,10.38,3.1,987.81,65.123,42.395535,-83.295586,500,623.744355,,13.5,29.361288,359,16 / 20,219516,2018-07-24 07:59:12:169
-1.9405,0.4908,10.2149,-1.9668,0.0705,9.6071,0.0849,0.0588,-0.5966,-0.0096,0.016,-0.0032,0,-18.48,18.72,-13.14,46.69,-0.38,11.41,3.1,987.78,63.177,42.395535,-83.295586,500,623.744355,,13.5,29.361288,359,16 / 20,220016,2018-07-24 07:59:12:669
-2.3882,0.1209,9.7432,-2.0524,0.0166,9.5895,-0.3358,0.1043,0.1537,0.0032,-0.0245,0.0096,0,-18.54,18.72,-12.96,48.26,-0.14,12.19,3.1,987.8,63.794,42.395535,-83.295586,500,623.744355,,13.5,29.361288,359,19 / 20,220515,2018-07-24 07:59:13:168
-2.3762,-0.5782,8.1977,-1.939,0.0096,9.613,0.3732,-0.3029,-1.1148,0.0479,0.0597,0.0021,0,-19.2,18.6,-12.3,47.84,-0.11,11.41,3.1,987.77,65.033,42.395535,-83.295586,500,623.744355,,13.5,29.361288,359,19 / 20,221016,2018-07-24 07:59:13:669
-1.7693,-0.3484,9.4224,-2.1995,-0.1143,9.5561,0.0124,-0.3993,0.7749,0,-0.0405,-0.0032,0,-19.32,18.78,-12.24,48.25,0.66,12.8,3.1,987.77,66.158,42.395535,-83.295586,500,623.744355,,13.5,29.361288,359,19 / 20,221516,2018-07-24 07:59:14:169
-2.0925,-1.1265,9.4858,-2.0913,-0.2425,9.578,0.3998,-0.0975,0.6237,-0.0224,-0.0224,-0.0043,0,-19.2,18.84,-13.02,48.58,1.11,12.34,3.1,987.76,66.216,42.395535,-83.295586,500,623.744355,,13.5,29.361288,359,19 / 20,222016,2018-07-24 07:59:14:669
-2.6863,-0.6345,9.6822,-2.0946,-0.3088,9.5754,-0.5917,-0.3256,0.1068,-0.0352,0.0629,-0.0224,0,-19.86,18.96,-13.92,50.26,1.77,12.08,3.1,987.71,67.347,42.395535,-83.295586,500,623.744355,,13.5,29.361288,359,19 / 20,222516,2018-07-24 07:59:15:169
-1.9381,-0.6979,9.5409,-2.4517,-0.3074,9.4903,0.1951,-0.5066,0.3978,0.0181,-0.0234,0,0,-20.46,18.78,-13.98,50.67,1.77,14.38,3.1,987.73,67.431,42.395535,-83.295586,500,623.744355,,13.5,29.361288,359,19 / 20,223015,2018-07-24 07:59:15:668
-3.5243,0.0299,10.2915,-2.3648,-0.3813,9.5096,1.1605,0.0557,0.6801,0.0043,-0.1641,0.0213,0,-20.4,18.84,-13.44,50.25,2.22,13.26,3.1,987.71,71.827,42.395535,-83.295586,500,623.744355,,13.5,29.361288,359,19 / 20,223516,2018-07-24 07:59:16:169
-1.9082,-0.9804,8.8669,-2.1856,-0.455,9.5492,0.3696,0.1031,0.607,0.0202,-0.017,0.0107,0,-20.28,19.2,-13.2,50.24,2.61,12.64,3.1,987.75,67.629,42.395535,-83.295586,500,623.744355,,13.5,29.361288,359,19 / 20,224016,2018-07-24 07:59:16:669
-2.4193,-2.2613,7.1706,-2.0993,-0.5719,9.5622,0.4294,-0.4971,0.1822,0.0575,-0.3665,0.0192,0,-20.28,18.54,-12.72,50.22,2.79,12.23,3.1,987.7,66.365,42.395535,-83.295586,500,623.744355,,13.5,29.361288,359,19 / 20,224516,2018-07-24 07:59:17:169
-2.3296,-0.8009,9.5732,-1.989,-0.7675,9.5721,-0.3405,-0.0334,0.0011,-0.0053,0.0266,-0.0021,0,-20.34,19.44,-11.94,50.18,4.41,11.66,3.1,987.67,66.307,42.395535,-83.295586,500,623.744355,,13.5,29.361288,359,19 / 20,225016,2018-07-24 07:59:17:669
-1.5514,-0.7709,8.9352,-2.1225,-0.7451,9.5452,0.3388,-0.6782,-0.7836,0.0107,-0.0533,0.0053,0,-20.22,19.56,-13.02,49.16,4.34,12.5,3.1,987.74,66.408,42.395535,-83.295586,500,623.744355,,13.5,29.361288,359,19 / 20,225516,2018-07-24 07:59:18:169
-2.1847,-0.7602,9.0369,-2.0706,-0.7381,9.5571,0.1193,0.1887,0.1717,0.0053,-0.0671,0.0064,0,-19.56,19.44,-13.26,50.66,4.43,12.34,3.1,987.71,65.648,42.395535,-83.295586,500,623.744355,,13.5,29.361288,359,19 / 20,226017,2018-07-24 07:59:18:670
-2.478,-0.4824,9.1578,-2.1067,-0.7205,9.5506,-0.3114,0.2943,0.0215,-0.0181,0.065,-0.0053,0,-19.62,19.08,-12.9,50.58,4.18,12.24,3.1,987.7,64.401,42.395535,-83.295586,500,623.744355,,13.5,29.361288,359,19 / 20,226516,2018-07-24 07:59:19:169
-2.4972,-0.5878,8.7915,-2.2709,-0.5929,9.5216,0.3879,-0.0918,-0.1687,0.0075,-0.0788,-0.0107,0,-19.98,18.72,-13.38,50.52,3.36,13.26,3.1,987.71,65.517,42.395535,-83.295586,500,623.744355,,13.5,29.361288,359,19 / 20,227016,2018-07-24 07:59:19:669
-1.9932,-1.1037,9.2476,-2.2101,-0.7276,9.5266,0.3199,-0.497,-0.4191,0.0043,-0.0415,0.0075,0,-19.92,18.66,-12.96,50.74,4.21,13.38,3.1,987.67,67.336,42.395535,-83.295586,500,623.744355,,13.5,29.361288,359,19 / 20,227515,2018-07-24 07:59:20:168
-1.5263,-0.9589,10.0916,-2.1881,-0.8097,9.5251,0.6618,-0.1492,0.5665,0.0277,-0.0842,0,0,-19.68,18.84,-13.08,50.85,4.78,13.06,3.1,987.68,66.345,42.395535,-83.295586,500,623.744355,,13.5,29.361288,359,19 / 20,228016,2018-07-24 07:59:20:669
-2.2517,-1.8112,9.4056,-2.2316,-0.9074,9.5061,0.3558,-0.4393,-0.0155,0.0064,-0.0032,0.0011,0,-20.04,18.78,-13.14,51,5.26,13.28,3.1,987.72,66.589,42.395535,-83.295586,500,623.744355,,13.5,29.361288,359,19 / 20,228516,2018-07-24 07:59:21:169
-2.5594,-0.8571,9.7336,-2.0713,-0.9581,9.5374,0.2816,0.1896,1.2988,-0.0234,-0.0202,0,0,-20.1,18.48,-12.96,52.67,5.75,13.01,3.1,987.67,68.148,42.395535,-83.295586,500,623.744355,,13.5,29.361288,359,19 / 20,229016,2018-07-24 07:59:21:669
-1.5742,-0.6273,8.8143,-2.1442,-1.0043,9.5165,0.4647,0.1579,0.3655,-0.0266,-0.0298,-0.0011,0,-21.06,18.42,-11.82,53.39,5.86,12.69,3.1,987.7,67.4,42.39674,-83.29565,538.71,623.744355,,53.78,39.148384,357.8,14 / 20,229515,2018-07-24 07:59:22:168
-2.3834,-0.7195,9.3661,-2.2545,-1.0652,9.4844,0.8455,0.3589,0.1583,0.0458,0.0692,0.0117,0,-19.5,19.32,-13.08,50.06,6.26,13.29,3.1,987.7,67.277,42.39674,-83.29565,538.71,623.744355,,53.78,39.148384,357.8,14 / 20,230016,2018-07-24 07:59:22:669
-1.8411,-1.0056,8.9986,-2.04,-1.0105,9.5387,0.1989,0.005,-0.5401,-0.0181,0.0554,0.0021,0,-18.9,19.38,-13.8,50.19,5.92,11.78,3.1,987.68,68.677,42.39674,-83.29565,538.71,623.744355,,53.78,39.148384,357.8,14 / 20,230515,2018-07-24 07:59:23:168
-2.4014,-1.1229,9.2548,-2.1846,-1.0484,9.5026,0.1029,0.4427,-0.7422,-0.0256,0.0522,0.0053,0,-18.96,19.2,-13.5,49.97,6.15,12.79,3.1,987.66,69.676,42.39674,-83.29565,538.71,623.744355,,53.78,39.148384,357.8,14 / 20,231016,2018-07-24 07:59:23:669
-2.0949,-1.7705,9.3625,-2.2201,-1.0813,9.4906,0.2197,-0.5563,-0.3604,0.0309,-0.0352,-0.016,0,-20.04,19.2,-13.26,51.25,6.26,13.16,3.1,987.69,68.821,42.39674,-83.29565,538.71,623.744355,,53.78,39.148384,357.8,14 / 20,231516,2018-07-24 07:59:24:169
-1.8806,-0.6153,6.9863,-2.3995,-1.0262,9.453,1.3316,2.0426,1.8775,-0.0234,0.2194,-0.0096,0,-21.12,18.72,-11.82,51.89,6.04,12.87,3.1,987.66,70.887,42.39674,-83.29565,538.71,623.744355,,53.78,39.148384,357.8,14 / 20,232016,2018-07-24 07:59:24:669
-2.0159,-1.6364,10.7967,-1.7323,-0.8766,9.6126,-0.0969,-0.9382,0.8896,-0.0075,-0.081,0.0021,0,-20.1,19.44,-12,50.36,5.52,10.79,3.1,987.74,71.638,42.39674,-83.29565,538.71,623.744355,,53.78,39.148384,357.8,14 / 20,232515,2018-07-24 07:59:25:168
-1.7334,-0.7338,10.003,-1.7067,-0.9765,9.6075,-0.0267,0.2427,0.3955,-0.0437,-0.017,0.0128,0,-20.58,18.9,-13.14,51.91,5.78,10.02,3.1,987.67,67.381,42.39674,-83.29565,538.71,623.744355,,53.78,39.148384,357.8,14 / 20,233015,2018-07-24 07:59:25:668
-1.8435,-1.33,10.0461,-1.6844,-1.1737,9.5893,-0.9025,-0.2376,0.1622,-0.0021,-0.033,-0.0032,0,-21.66,18.54,-12.54,53.48,7.04,10.67,3.1,987.65,68.827,42.39674,-83.29565,538.71,623.744355,,53.78,39.148384,357.8,14 / 20,233516,2018-07-24 07:59:26:169
-1.7131,-0.6788,9.2332,-1.7483,-1.1649,9.579,0.1154,0.552,-0.0955,0.0011,0.0138,0.0085,0,-21.24,18.96,-12.6,52.3,6.92,10.42,3.1,987.63,68.937,42.39674,-83.29565,538.71,623.744355,,53.78,39.148384,357.8,14 / 20,234016,2018-07-24 07:59:26:669
-1.9429,-1.5275,9.5948,-1.7437,-1.1864,9.5772,-0.799,-0.3064,0.1397,-0.0021,-0.0021,-0.0096,0,-19.8,19.8,-13.08,49.55,6.86,10.26,3.1,987.63,68.153,42.39674,-83.29565,538.71,623.744355,,53.78,39.148384,357.8,14 / 20,234515,2018-07-24 07:59:27:168
-2.2398,-1.0511,11.1618,-2.045,-1.4381,9.4826,0.5906,-0.5958,-1.5099,-0.0586,-0.1875,0.0149,0,-19.08,18.96,-13.8,51.05,8.36,12.06,3.1,987.64,74.093,42.39674,-83.29565,538.71,623.744355,,53.78,39.148384,357.8,14 / 20,235016,2018-07-24 07:59:27:669
-2.0818,-1.233,9.6845,-1.9582,-1.3885,9.5083,0.1291,-0.1965,-0.7,-0.0288,-0.0554,-0.0011,0,-21.12,19.08,-13.08,52.77,8.05,11.63,3.1,987.6,69.297,42.39674,-83.29565,538.71,623.744355,,53.78,39.148384,357.8,14 / 20,235516,2018-07-24 07:59:28:169
-1.8375,-1.0439,11.1498,-2.0553,-1.3871,9.488,0.2177,0.3433,1.6618,-0.032,-0.0128,0.0181,0,-21.78,18.84,-11.46,53.05,8.26,12.34,3.1,987.62,68.037,42.39674,-83.29565,538.71,623.744355,,53.78,39.148384,357.8,14 / 20,236016,2018-07-24 07:59:28:669
-2.2063,-1.7166,9.5804,-1.8602,-1.3311,9.5362,-0.4215,-0.1725,0.1652,0.0309,0.0032,-0.0021,0,-21.12,19.08,-12.24,52.21,7.85,10.99,3.1,987.65,70.678,42.39674,-83.29565,538.71,623.744355,,53.78,39.148384,357.8,14 / 20,236515,2018-07-24 07:59:29:168
-1.1313,-1.2115,9.9455,-1.9265,-1.3388,9.5219,0.0877,-0.883,-0.7017,-0.0501,0.0927,-0.0075,0,-20.52,19.02,-13.02,52.66,7.74,11.47,3.1,987.6,66.099,42.39674,-83.29565,538.71,623.744355,,53.78,39.148384,357.8,14 / 20,237016,2018-07-24 07:59:29:669
-1.9142,-1.0702,8.9507,-2.0664,-1.3286,9.494,0.1845,-0.0361,-0.7683,0,-0.0181,0.0064,0,-21.54,18.48,-12.18,54.96,7.83,12.5,3.1,987.59,65.635,42.39674,-83.29565,538.71,623.744355,,53.78,39.148384,357.8,13 / 20,237517,2018-07-24 07:59:30:170
-2.4804,-1.6783,8.1211,-1.9974,-1.3224,9.5096,-0.483,-0.3559,-1.3885,0.0362,0.1214,-0.0202,0,-21.72,18.12,-11.94,54.9,7.64,12.24,3.1,987.59,69.491,42.39674,-83.29565,538.71,623.744355,,53.78,39.148384,357.8,13 / 20,238016,2018-07-24 07:59:30:669
-1.4653,-0.923,9.9323,-1.7776,-1.2755,9.5595,-0.0971,-0.513,-0.2867,0.0362,-0.0629,-0.0053,0,-22.56,18.3,-11.58,55.81,7.49,10.72,3.1,987.59,72.835,42.39817,-83.29574,506.45,627.7217523,,66.24,39.148384,356.3,13 / 20,238516,2018-07-24 07:59:31:169
-2.4241,-1.7861,9.3003,-1.7506,-1.2488,9.568,-1.5067,-0.791,-3.1707,-0.0043,0.473,-0.0256,0,-20.88,19.26,-12.42,52.14,7.47,11.48,3.1,987.56,70.534,42.39817,-83.29574,506.45,627.7217523,,66.24,39.148384,356.3,13 / 20,239016,2018-07-24 07:59:31:669
-4.5322,-3.978,1.4796,-2.1071,-1.2141,9.5004,3.2455,2.5357,-4.1517,0.2546,0.7414,0.1683,0,-19.8,16.8,-12.18,53.75,6.59,9.39,3.1,987.64,67.456,42.39817,-83.29574,506.45,627.7217523,,66.24,39.148384,356.3,13 / 20,239516,2018-07-24 07:59:32:169
-1.7394,-0.8703,9.5469,-1.5859,-1.4947,9.5614,0.2799,0.5945,-1.5696,-0.0554,0.0703,-0.0043,0,-23.76,15.84,-10.08,59.48,8.7,9.66,3.1,987.52,65.815,42.39817,-83.29574,506.45,627.7217523,,66.24,39.148384,356.3,13 / 20,240016,2018-07-24 07:59:32:669
-1.6017,-1.5419,7.3251,-1.72,-1.4849,9.5398,0.1183,-0.0569,-2.2147,-0.0543,0.1278,-0.016,0,-25.92,17.88,-8.46,57.32,8.47,10.27,3.1,987.58,66.506,42.39817,-83.29574,506.45,627.7217523,,66.24,39.148384,356.3,13 / 20,240516,2018-07-24 07:59:33:169
-2.3188,-1.4892,8.746,-1.8307,-1.4941,9.5177,0.2373,-0.0813,-0.9788,-0.0352,-0.1822,-0.0043,0,-23.16,17.34,-11.1,57.25,8.48,10.69,3.1,987.55,71.359,42.39817,-83.29574,506.45,627.7217523,,66.24,39.148384,356.3,13 / 20,241016,2018-07-24 07:59:33:669
-1.1073,-0.6225,8.758,-1.6361,-1.5127,9.5502,0.5287,0.8902,-0.7922,0.0064,-0.0224,0.0128,0,-22.92,16.98,-10.98,57.3,8.72,9.93,3.1,987.53,69.896,42.39817,-83.29574,506.45,627.7217523,,66.24,39.148384,356.3,13 / 20,241515,2018-07-24 07:59:34:168
-2.5067,-1.9692,9.2895,-1.7488,-1.4805,9.5352,0.7779,0.3732,-0.2696,0.0309,-0.0149,-0.0107,0,-22.8,17.34,-10.8,57.37,8.94,10.53,3.1,987.57,73.303,42.39817,-83.29574,506.45,627.7217523,,66.24,39.148384,356.3,13 / 20,242016,2018-07-24 07:59:34:669
-2.1895,-1.4569,9.2033,-1.9038,-1.3716,9.5218,-0.8639,0.0058,1.4341,0.0064,-0.0724,-0.0096,0,-21.42,18,-10.98,53.44,8.14,11.53,3.1,987.54,72.643,42.39817,-83.29574,506.45,627.7217523,,66.24,39.148384,356.3,13 / 20,242516,2018-07-24 07:59:35:169
-1.6484,-1.4138,9.0561,-1.9414,-1.3769,9.5135,0.293,-0.0369,-0.4574,-0.0202,-0.1566,0.0117,0,-20.94,16.86,-10.68,55.13,8.21,12.26,3.1,987.57,71.672,42.39817,-83.29574,506.45,627.7217523,,66.24,39.148384,356.3,13 / 20,243016,2018-07-24 07:59:35:669
-1.634,-1.3982,9.4774,-1.8402,-1.4374,9.5246,0.6251,-0.2002,-0.4973,-0.0011,0,-0.0021,0,-21.24,17.1,-10.56,55.15,8.48,11.03,3.1,987.53,71.357,42.39817,-83.29574,506.45,627.7217523,,66.24,39.148384,356.3,13 / 20,243516,2018-07-24 07:59:36:169
-1.6197,-0.0754,10.3346,-1.9342,-1.4858,9.4985,0.3552,0.2084,-0.1839,0.0075,-0.0245,0.0096,0,-24.3,17.22,-12,58.71,8.69,11.56,3.1,987.53,72.73,42.39817,-83.29574,506.45,627.7217523,,66.24,39.148384,356.3,13 / 20,244016,2018-07-24 07:59:36:669
-1.063,-2.0087,8.7927,-2.1655,-1.4178,9.4589,1.1025,-0.591,-0.6662,0.0277,-0.147,0.0501,0,-24.06,17.22,-13.98,59.53,8.41,13.06,3.1,987.56,72.351,42.39817,-83.29574,506.45,627.7217523,,66.24,39.148384,356.3,13 / 20,244515,2018-07-24 07:59:37:168
-1.5395,-1.6556,10.167,-1.8638,-1.5845,9.4966,0.3243,-0.071,0.6704,0.0138,-0.098,0.0053,0,-23.64,17.58,-14.1,58.16,9.24,11.18,3.1,987.5,71.724,42.39817,-83.29574,506.45,627.7217523,,66.24,39.148384,356.3,13 / 20,245016,2018-07-24 07:59:37:669
-1.6005,-1.4222,9.5972,-1.8637,-1.6027,9.4936,0.1494,0.0608,0.3609,-0.0032,0.0543,0.0096,0,-23.04,18.96,-16.2,56.56,9.36,10.71,3.1,987.52,70.813,42.39817,-83.29574,506.45,627.7217523,,66.24,39.148384,356.3,13 / 20,245516,2018-07-24 07:59:38:169
-2.0303,-1.7957,9.1782,-1.7619,-1.5527,9.5213,-0.2684,-0.243,-0.3431,0.0533,-0.0533,-0.0011,0,-22.68,18,-16.38,57.92,8.87,10.55,3.1,987.55,72.112,42.39817,-83.29574,506.45,627.7217523,,66.24,39.148384,356.3,13 / 20,246016,2018-07-24 07:59:38:669
-1.6604,-1.3264,10.7236,-1.7601,-1.3222,9.5564,0.0997,-0.0042,1.1673,-0.017,0.1417,0.0288,0,-22.68,17.16,-15.54,59.01,7.73,9.81,3.1,987.53,74.648,42.39817,-83.29574,506.45,627.7217523,,66.24,39.148384,356.3,15 / 20,246516,2018-07-24 07:59:39:169
